# Sylvania F4T5 4W Regular Warm White Fluorescent
#
#    Spectral data Copyright (c) 1998-2009 by I.N. Galidakis          
#                                                                     
#    Extracted from page:                                             
#    <http://ioannis.virtualcomposer2000.com/spectroscope/amici.html> 
#                                                                     
#    This data is distributed in the hope that it will be useful,     
#    but WITHOUT ANY WARRANTY; without even the implied warranty of   
#    MERCHANTABILITY or FITNESS FOR A PARTICULAR PURPOSE.  See the    
#    CCL 3.0 Creative Commons License 3.0 for more details.           
#                                                                     
#    You should have received a copy of the CCL 3.0                   
#    along with this program.  If not, see:                           
#    <http://creativecommons.org/licenses/by/3.0/>.                   
#
404.756989	0.000000
404.901001	0.000000
405.054993	0.000804
405.221008	0.000804
405.398010	0.001810
405.584991	0.002815
405.782013	0.002815
405.989990	0.003821
406.208008	0.004827
406.436005	0.004827
406.674011	0.005631
406.920990	0.005631
407.177002	0.005631
407.442993	0.005631
407.717010	0.005631
408.000000	0.005631
408.291992	0.005631
408.592010	0.005631
408.901001	0.007190
409.217987	0.007190
409.541992	0.007190
409.875000	0.007190
410.214996	0.007190
410.562988	0.007190
410.917999	0.007190
411.279999	0.007190
411.649994	0.009754
412.026001	0.009452
412.408997	0.010860
412.799011	0.011765
413.195007	0.015485
413.596985	0.017949
414.006012	0.023027
414.420990	0.023529
414.842010	0.029613
415.269012	0.030166
415.701996	0.035395
416.140015	0.038562
416.584015	0.043288
417.032990	0.048165
417.487000	0.053343
417.946991	0.055556
418.411987	0.074208
418.881989	0.080794
419.355988	0.091905
419.835999	0.099749
420.320007	0.110458
420.808990	0.120161
421.302002	0.129160
421.799988	0.141428
422.302002	0.155455
422.808990	0.165209
423.319000	0.175264
423.834015	0.191252
424.352997	0.209201
424.876007	0.226647
425.402008	0.239316
425.933014	0.250729
426.467010	0.270588
427.005005	0.281498
427.546997	0.303067
428.092010	0.326848
428.640991	0.356863
429.194000	0.386928
429.750000	0.408195
430.308990	0.437054
430.872009	0.469533
431.437988	0.496481
432.006989	0.528255
432.579010	0.532981
433.154999	0.551533
433.734009	0.516641
434.316010	0.546254
434.901001	0.756712
435.489990	0.884515
436.080994	0.719155
436.675995	0.560835
437.273987	0.525691
437.873993	0.556812
438.477997	0.553092
439.084991	0.545500
439.695007	0.539316
440.307007	0.548969
440.923004	0.548667
441.541992	0.550528
442.164001	0.554801
442.789001	0.557466
443.416992	0.560633
444.048004	0.562644
444.683014	0.561186
445.320007	0.561840
445.959991	0.570035
446.604004	0.572499
447.251007	0.569130
447.901001	0.570488
448.553986	0.580141
449.209991	0.583258
449.869995	0.579386
450.532990	0.580744
451.200012	0.585621
451.869995	0.588688
452.542999	0.591754
453.220001	0.593363
453.901001	0.595877
454.584991	0.599899
455.273010	0.602212
455.964996	0.604927
456.660004	0.608195
457.359009	0.612770
458.062988	0.619306
458.769989	0.620362
459.480988	0.620211
460.196991	0.628708
460.915985	0.632479
461.640015	0.627099
462.368988	0.615133
463.101990	0.612468
463.838989	0.602765
464.580994	0.599246
465.328003	0.594670
466.079987	0.599447
466.835999	0.587632
467.597992	0.567823
468.364990	0.562343
469.136993	0.569834
469.914001	0.567873
470.696991	0.570387
471.484985	0.567622
472.278992	0.567169
473.079010	0.561991
473.885010	0.565008
474.696991	0.560985
475.515015	0.560583
476.338989	0.557516
477.170013	0.559477
478.007996	0.555957
478.851990	0.563901
479.703003	0.561538
480.559998	0.546204
481.424988	0.544243
482.298004	0.549723
483.177002	0.553745
484.063995	0.554148
484.959015	0.547461
485.862000	0.548215
486.773010	0.542936
487.691986	0.546707
488.619995	0.541327
489.554993	0.546053
490.500000	0.544143
491.453003	0.543087
492.415985	0.537003
493.388000	0.536199
494.368988	0.534691
495.359009	0.529462
496.359985	0.517546
497.369995	0.512016
498.390991	0.490498
499.420990	0.477527
500.463013	0.479688
501.515015	0.486526
502.578003	0.494319
503.652008	0.494671
504.737000	0.500101
505.834015	0.506234
506.942993	0.511966
508.062988	0.516340
509.196014	0.520060
510.341003	0.523931
511.498993	0.529914
512.669006	0.540724
513.853027	0.544545
515.049011	0.548366
516.260010	0.551835
517.484009	0.555656
518.721985	0.559980
519.973999	0.564002
521.239990	0.566415
522.521973	0.568627
523.817993	0.570287
525.129028	0.571845
526.455994	0.572549
527.797974	0.571393
529.156982	0.569935
530.531006	0.568879
531.921997	0.568125
533.330017	0.566918
534.755005	0.558773
536.197021	0.562645
537.656006	0.547662
539.132996	0.546908
540.629028	0.524485
542.142029	0.525490
543.674988	0.641880
545.226013	0.676421
546.796021	0.569029
548.385986	0.534238
549.994995	0.551483
551.625000	0.542835
553.275024	0.537808
554.945984	0.530015
556.637024	0.520161
558.349976	0.516742
560.083984	0.508296
561.841003	0.503972
563.619019	0.485470
565.419983	0.469533
567.244019	0.460282
569.091003	0.460181
570.960999	0.460383
572.854980	0.461941
574.773010	0.470639
576.716003	0.483258
578.682983	0.484163
580.676025	0.474309
582.693970	0.459779
584.737000	0.448668
586.807007	0.448869
588.903015	0.446154
591.026001	0.438059
593.176025	0.424082
595.354004	0.434942
597.559021	0.456410
599.793030	0.473354
602.054993	0.483509
604.346985	0.506988
606.666992	0.511312
609.017029	0.523228
611.398010	0.527752
613.807983	0.542785
616.250000	0.553896
618.721985	0.562544
621.226013	0.559578
623.762024	0.561488
626.330017	0.555555
628.931030	0.540774
631.565002	0.520312
634.232971	0.498542
636.934021	0.476923
639.669983	0.447310
642.440002	0.411915
645.245972	0.373856
648.085999	0.336953
650.963013	0.293615
653.875977	0.243640
656.825989	0.196732
659.812988	0.157617
662.836975	0.115787
665.898987	0.076873
669.000000	0.060030
