# OSRAM HQI-T 400W/Grun Green colored Metal Halide Lamp with Mercury and thallium iodides
#
#    Spectral data Copyright (c) 1998-2009 by I.N. Galidakis          
#                                                                     
#    Extracted from page:                                             
#    <http://ioannis.virtualcomposer2000.com/spectroscope/amici.html> 
#                                                                     
#    This data is distributed in the hope that it will be useful,     
#    but WITHOUT ANY WARRANTY; without even the implied warranty of   
#    MERCHANTABILITY or FITNESS FOR A PARTICULAR PURPOSE.  See the    
#    CCL 3.0 Creative Commons License 3.0 for more details.           
#                                                                     
#    You should have received a copy of the CCL 3.0                   
#    along with this program.  If not, see:                           
#    <http://creativecommons.org/licenses/by/3.0/>.                   
#
404.756989	0.002866
404.901001	0.002866
405.054993	0.003117
405.221008	0.003117
405.398010	0.003117
405.584991	0.003117
405.782013	0.003117
405.989990	0.003117
406.208008	0.003117
406.436005	0.003117
406.674011	0.003519
406.920990	0.003519
407.177002	0.003519
407.442993	0.003519
407.717010	0.003519
408.000000	0.003519
408.291992	0.003519
408.592010	0.003519
408.901001	0.003519
409.217987	0.003519
409.541992	0.003519
409.875000	0.003519
410.214996	0.003519
410.562988	0.003519
410.917999	0.003519
411.279999	0.003519
411.649994	0.002262
412.026001	0.002061
412.408997	0.003670
412.799011	0.005581
413.195007	0.007290
413.596985	0.007692
414.006012	0.004072
414.420990	0.002464
414.842010	0.006838
415.269012	0.006938
415.701996	0.007290
416.140015	0.008195
416.584015	0.008899
417.032990	0.009301
417.487000	0.009000
417.946991	0.008346
418.411987	0.010910
418.881989	0.011312
419.355988	0.011564
419.835999	0.012066
420.320007	0.011714
420.808990	0.012569
421.302002	0.013323
421.799988	0.014379
422.302002	0.017295
422.808990	0.018452
423.319000	0.018753
423.834015	0.019256
424.352997	0.018753
424.876007	0.019407
425.402008	0.020965
425.933014	0.022624
426.467010	0.021669
427.005005	0.023831
427.546997	0.029110
428.092010	0.031926
428.640991	0.036350
429.194000	0.039719
429.750000	0.046254
430.308990	0.049824
430.872009	0.048567
431.437988	0.046757
432.006989	0.043137
432.579010	0.037003
433.154999	0.032881
433.734009	0.036551
434.316010	0.046003
434.901001	0.053444
435.489990	0.107190
436.080994	0.225038
436.675995	0.377426
437.273987	0.429160
437.873993	0.306838
438.477997	0.142433
439.084991	0.087783
439.695007	0.070287
440.307007	0.070538
440.923004	0.071946
441.541992	0.074057
442.164001	0.076672
442.789001	0.080342
443.416992	0.085520
444.048004	0.090246
444.683014	0.094067
445.320007	0.093062
445.959991	0.092257
446.604004	0.086526
447.251007	0.075566
447.901001	0.064806
448.553986	0.055757
449.209991	0.050980
449.869995	0.047913
450.532990	0.043841
451.200012	0.044495
451.869995	0.047612
452.542999	0.050679
453.220001	0.053092
453.901001	0.056963
454.584991	0.059728
455.273010	0.061136
455.964996	0.069683
456.660004	0.071292
457.359009	0.082202
458.062988	0.092509
458.769989	0.098894
459.480988	0.106486
460.196991	0.110307
460.915985	0.107592
461.640015	0.094872
462.368988	0.081046
463.101990	0.065862
463.838989	0.053494
464.580994	0.046204
465.328003	0.042886
466.079987	0.044847
466.835999	0.048165
467.597992	0.048969
468.364990	0.047360
469.136993	0.046154
469.914001	0.045400
470.696991	0.044545
471.484985	0.044042
472.278992	0.043640
473.079010	0.045349
473.885010	0.044394
474.696991	0.042634
475.515015	0.043037
476.338989	0.046104
477.170013	0.047411
478.007996	0.047863
478.851990	0.046858
479.703003	0.047210
480.559998	0.052740
481.424988	0.053394
482.298004	0.050025
483.177002	0.049723
484.063995	0.049070
484.959015	0.049824
485.862000	0.049623
486.773010	0.051885
487.691986	0.053645
488.619995	0.055354
489.554993	0.055606
490.500000	0.058120
491.453003	0.057868
492.415985	0.056310
493.388000	0.053947
494.368988	0.051785
495.359009	0.052036
496.359985	0.052740
497.369995	0.055606
498.390991	0.055204
499.420990	0.055757
500.463013	0.058673
501.515015	0.063449
502.578003	0.066868
503.652008	0.070840
504.737000	0.075365
505.834015	0.079387
506.942993	0.081800
508.062988	0.090095
509.196014	0.101961
510.341003	0.119306
511.498993	0.140724
512.669006	0.148668
513.853027	0.145902
515.049011	0.159728
516.260010	0.176169
517.484009	0.198542
518.721985	0.219759
519.973999	0.245903
521.239990	0.266767
522.521973	0.283258
523.817993	0.268829
525.129028	0.228406
526.455994	0.195978
527.797974	0.194721
529.156982	0.212871
530.531006	0.243389
531.921997	0.262443
533.330017	0.330769
534.755005	0.612117
536.197021	0.765661
537.656006	0.718150
539.132996	0.637355
540.629028	0.566616
542.142029	0.433685
543.674988	0.287079
545.226013	0.317798
546.796021	0.505782
548.385986	0.353997
549.994995	0.209251
551.625000	0.207290
553.275024	0.239920
554.945984	0.210307
556.637024	0.153092
558.349976	0.142735
560.083984	0.130015
561.841003	0.114228
563.619019	0.102765
565.419983	0.094771
567.244019	0.090548
569.091003	0.086928
570.960999	0.086626
572.854980	0.094470
574.773010	0.091202
576.716003	0.179135
578.682983	0.333082
580.676025	0.331674
582.693970	0.191905
584.737000	0.178884
586.807007	0.202765
588.903015	0.282504
591.026001	0.347260
593.176025	0.244294
595.354004	0.205480
597.559021	0.202514
599.793030	0.207139
602.054993	0.203369
604.346985	0.194118
606.666992	0.189894
609.017029	0.187733
611.398010	0.182705
613.807983	0.177828
616.250000	0.171895
618.721985	0.166667
621.226013	0.162343
623.762024	0.159678
626.330017	0.151584
628.931030	0.147210
631.565002	0.141076
634.232971	0.135897
636.934021	0.130920
639.669983	0.126747
642.440002	0.126144
645.245972	0.127904
648.085999	0.164756
650.963013	0.224133
653.875977	0.307692
656.825989	0.276420
659.812988	0.114681
662.836975	0.048064
665.898987	0.038663
669.000000	0.039618
