# NARVA 160W Self-ballasted High Pressure Mercury Vapor Lamp
#
#    Spectral data Copyright (c) 1998-2009 by I.N. Galidakis          
#                                                                     
#    Extracted from page:                                             
#    <http://ioannis.virtualcomposer2000.com/spectroscope/amici.html> 
#                                                                     
#    This data is distributed in the hope that it will be useful,     
#    but WITHOUT ANY WARRANTY; without even the implied warranty of   
#    MERCHANTABILITY or FITNESS FOR A PARTICULAR PURPOSE.  See the    
#    CCL 3.0 Creative Commons License 3.0 for more details.           
#                                                                     
#    You should have received a copy of the CCL 3.0                   
#    along with this program.  If not, see:                           
#    <http://creativecommons.org/licenses/by/3.0/>.                   
#
404.756989	0.029160
404.901001	0.052690
405.054993	0.045500
405.221008	0.025943
405.398010	0.043389
405.584991	0.051031
405.782013	0.125842
405.989990	0.209301
406.208008	0.349522
406.436005	0.559678
406.674011	0.281750
406.920990	0.096581
407.177002	0.059175
407.442993	0.051332
407.717010	0.041880
408.000000	0.048517
408.291992	0.094419
408.592010	0.202765
408.901001	0.195777
409.217987	0.091453
409.541992	0.048014
409.875000	0.043841
410.214996	0.021066
410.562988	0.030266
410.917999	0.048115
411.279999	0.044947
411.649994	0.052388
412.026001	0.054852
412.408997	0.059226
412.799011	0.066365
413.195007	0.073705
413.596985	0.083057
414.006012	0.091202
414.420990	0.099598
414.842010	0.111966
415.269012	0.121217
415.701996	0.129462
416.140015	0.140121
416.584015	0.152589
417.032990	0.158572
417.487000	0.165510
417.946991	0.169532
418.411987	0.191302
418.881989	0.204726
419.355988	0.214932
419.835999	0.226244
420.320007	0.239216
420.808990	0.252438
421.302002	0.263298
421.799988	0.274912
422.302002	0.283006
422.808990	0.293414
423.319000	0.305178
423.834015	0.316893
424.352997	0.328959
424.876007	0.340422
425.402008	0.351735
425.933014	0.362092
426.467010	0.375214
427.005005	0.387682
427.546997	0.400050
428.092010	0.413876
428.640991	0.427199
429.194000	0.439015
429.750000	0.448014
430.308990	0.460433
430.872009	0.482806
431.437988	0.491151
432.006989	0.511010
432.579010	0.522423
433.154999	0.520563
433.734009	0.514429
434.316010	0.545198
434.901001	0.578632
435.489990	0.564052
436.080994	0.660583
436.675995	0.841176
437.273987	0.764555
437.873993	0.578230
438.477997	0.578029
439.084991	0.577024
439.695007	0.543841
440.307007	0.544494
440.923004	0.543941
441.541992	0.543288
442.164001	0.541729
442.789001	0.542835
443.416992	0.541779
444.048004	0.537355
444.683014	0.537003
445.320007	0.542634
445.959991	0.542081
446.604004	0.542433
447.251007	0.545600
447.901001	0.546908
448.553986	0.545701
449.209991	0.544494
449.869995	0.543891
450.532990	0.547511
451.200012	0.546053
451.869995	0.544092
452.542999	0.543589
453.220001	0.544394
453.901001	0.545701
454.584991	0.546505
455.273010	0.546405
455.964996	0.548868
456.660004	0.549371
457.359009	0.549773
458.062988	0.551030
458.769989	0.553343
459.480988	0.553796
460.196991	0.554047
460.915985	0.552690
461.640015	0.556611
462.368988	0.557617
463.101990	0.558773
463.838989	0.560885
464.580994	0.563751
465.328003	0.569080
466.079987	0.573152
466.835999	0.574962
467.597992	0.583911
468.364990	0.583459
469.136993	0.587833
469.914001	0.582755
470.696991	0.580493
471.484985	0.572750
472.278992	0.565912
473.079010	0.557667
473.885010	0.549221
474.696991	0.540322
475.515015	0.529914
476.338989	0.519306
477.170013	0.513725
478.007996	0.503218
478.851990	0.503218
479.703003	0.496632
480.559998	0.483660
481.424988	0.479236
482.298004	0.480040
483.177002	0.466868
484.063995	0.456712
484.959015	0.443640
485.862000	0.438562
486.773010	0.423781
487.691986	0.414027
488.619995	0.408497
489.554993	0.391302
490.500000	0.407240
491.453003	0.465812
492.415985	0.410256
493.388000	0.344596
494.368988	0.335093
495.359009	0.333333
496.359985	0.314530
497.369995	0.305782
498.390991	0.286576
499.420990	0.276923
500.463013	0.261337
501.515015	0.251835
502.578003	0.243992
503.652008	0.247863
504.737000	0.252438
505.834015	0.257064
506.942993	0.264957
508.062988	0.269935
509.196014	0.275968
510.341003	0.279638
511.498993	0.285319
512.669006	0.291252
513.853027	0.295173
515.049011	0.299849
516.260010	0.307843
517.484009	0.311010
518.721985	0.315385
519.973999	0.318954
521.239990	0.323982
522.521973	0.324133
523.817993	0.326446
525.129028	0.330367
526.455994	0.332579
527.797974	0.339316
529.156982	0.340825
530.531006	0.343489
531.921997	0.348618
533.330017	0.354299
534.755005	0.354902
536.197021	0.379286
537.656006	0.372650
539.132996	0.370689
540.629028	0.353645
542.142029	0.373856
543.674988	0.597938
545.226013	0.647411
546.796021	0.566616
548.385986	0.404474
549.994995	0.360131
551.625000	0.362846
553.275024	0.354148
554.945984	0.353796
556.637024	0.352187
558.349976	0.348668
560.083984	0.346757
561.841003	0.345601
563.619019	0.344093
565.419983	0.342031
567.244019	0.340523
569.091003	0.319306
570.960999	0.297034
572.854980	0.327703
574.773010	0.507541
576.716003	0.536551
578.682983	0.557968
580.676025	0.496632
582.693970	0.402111
584.737000	0.464103
586.807007	0.474611
588.903015	0.465812
591.026001	0.491101
593.176025	0.532981
595.354004	0.515586
597.559021	0.483510
599.793030	0.514630
602.054993	0.542282
604.346985	0.536299
606.666992	0.537405
609.017029	0.526445
611.398010	0.500553
613.807983	0.551282
616.250000	0.589995
618.721985	0.612318
621.226013	0.590347
623.762024	0.522121
626.330017	0.533233
628.931030	0.526847
631.565002	0.512418
634.232971	0.501106
636.934021	0.493263
639.669983	0.487884
642.440002	0.483560
645.245972	0.483007
648.085999	0.471544
650.963013	0.469482
653.875977	0.454651
656.825989	0.427049
659.812988	0.397335
662.836975	0.354701
665.898987	0.290297
669.000000	0.265862
