# PHILIPS Argenta 200W Incandescent Lamp
#
#    Spectral data Copyright (c) 1998-2009 by I.N. Galidakis          
#                                                                     
#    Extracted from page:                                             
#    <http://ioannis.virtualcomposer2000.com/spectroscope/amici.html> 
#                                                                     
#    This data is distributed in the hope that it will be useful,     
#    but WITHOUT ANY WARRANTY; without even the implied warranty of   
#    MERCHANTABILITY or FITNESS FOR A PARTICULAR PURPOSE.  See the    
#    CCL 3.0 Creative Commons License 3.0 for more details.           
#                                                                     
#    You should have received a copy of the CCL 3.0                   
#    along with this program.  If not, see:                           
#    <http://creativecommons.org/licenses/by/3.0/>.                   
#
404.756989	0.017195
404.901001	0.000000
405.054993	0.000000
405.221008	0.000000
405.398010	0.000000
405.584991	0.000000
405.782013	0.000000
405.989990	0.000000
406.208008	0.000000
406.436005	0.000000
406.674011	0.000000
406.920990	0.000000
407.177002	0.000000
407.442993	0.000000
407.717010	0.000000
408.000000	0.000000
408.291992	0.000000
408.592010	0.000000
408.901001	0.000000
409.217987	0.000000
409.541992	0.000000
409.875000	0.000000
410.214996	0.000000
410.562988	0.000000
410.917999	0.000000
411.279999	0.000000
411.649994	0.000000
412.026001	0.000000
412.408997	0.000000
412.799011	0.000000
413.195007	0.000000
413.596985	0.000000
414.006012	0.000000
414.420990	0.000000
414.842010	0.000603
415.269012	0.000804
415.701996	0.000804
416.140015	0.000855
416.584015	0.000905
417.032990	0.000855
417.487000	0.000955
417.946991	0.000704
418.411987	0.000855
418.881989	0.000654
419.355988	0.000804
419.835999	0.000905
420.320007	0.001408
420.808990	0.001408
421.302002	0.001156
421.799988	0.001207
422.302002	0.018803
422.808990	0.019608
423.319000	0.021518
423.834015	0.023580
424.352997	0.027099
424.876007	0.029713
425.402008	0.033886
425.933014	0.036048
426.467010	0.048316
427.005005	0.052187
427.546997	0.059075
428.092010	0.066918
428.640991	0.076219
429.194000	0.087783
429.750000	0.099246
430.308990	0.109703
430.872009	0.126345
431.437988	0.142031
432.006989	0.157969
432.579010	0.180392
433.154999	0.204625
433.734009	0.228004
434.316010	0.246707
434.901001	0.264454
435.489990	0.286224
436.080994	0.292257
436.675995	0.299145
437.273987	0.303620
437.873993	0.306837
438.477997	0.312619
439.084991	0.320563
439.695007	0.326948
440.307007	0.334741
440.923004	0.338713
441.541992	0.347059
442.164001	0.355857
442.789001	0.363650
443.416992	0.370387
444.048004	0.378281
444.683014	0.382403
445.320007	0.396732
445.959991	0.403620
446.604004	0.412066
447.251007	0.420965
447.901001	0.428356
448.553986	0.435948
449.209991	0.443640
449.869995	0.449724
450.532990	0.455103
451.200012	0.456561
451.869995	0.462846
452.542999	0.470237
453.220001	0.477024
453.901001	0.480744
454.584991	0.487884
455.273010	0.494419
455.964996	0.508798
456.660004	0.516993
457.359009	0.527954
458.062988	0.539216
458.769989	0.553142
459.480988	0.568326
460.196991	0.580291
460.915985	0.592056
461.640015	0.604877
462.368988	0.612569
463.101990	0.617094
463.838989	0.626496
464.580994	0.637959
465.328003	0.646305
466.079987	0.653947
466.835999	0.664304
467.597992	0.681147
468.364990	0.692660
469.136993	0.698693
469.914001	0.709704
470.696991	0.721418
471.484985	0.737808
472.278992	0.752740
473.079010	0.761589
473.885010	0.775264
474.696991	0.784766
475.515015	0.793464
476.338989	0.805983
477.170013	0.812518
478.007996	0.821971
478.851990	0.826294
479.703003	0.834640
480.559998	0.843288
481.424988	0.844796
482.298004	0.847310
483.177002	0.849572
484.063995	0.852086
484.959015	0.853242
485.862000	0.854851
486.773010	0.855253
487.691986	0.858019
488.619995	0.860130
489.554993	0.861387
490.500000	0.861136
491.453003	0.858270
492.415985	0.852941
493.388000	0.850125
494.368988	0.847511
495.359009	0.847963
496.359985	0.848114
497.369995	0.847410
498.390991	0.851080
499.420990	0.854901
500.463013	0.859376
501.515015	0.865007
502.578003	0.869331
503.652008	0.871795
504.737000	0.873454
505.834015	0.875918
506.942993	0.878935
508.062988	0.881599
509.196014	0.885471
510.341003	0.886325
511.498993	0.886828
512.669006	0.887029
513.853027	0.888689
515.049011	0.889342
516.260010	0.888739
517.484009	0.885622
518.721985	0.885169
519.973999	0.880192
521.239990	0.879840
522.521973	0.876924
523.817993	0.876723
525.129028	0.874410
526.455994	0.873505
527.797974	0.870237
529.156982	0.868527
530.531006	0.863750
531.921997	0.866666
533.330017	0.859879
534.755005	0.857767
536.197021	0.850075
537.656006	0.843388
539.132996	0.836903
540.629028	0.832378
542.142029	0.826948
543.674988	0.823680
545.226013	0.819557
546.796021	0.819256
548.385986	0.813675
549.994995	0.809050
551.625000	0.805681
553.275024	0.806435
554.945984	0.810407
556.637024	0.812669
558.349976	0.816943
560.083984	0.819809
561.841003	0.833987
563.619019	0.847058
565.419983	0.814831
567.244019	0.799698
569.091003	0.777677
570.960999	0.783610
572.854980	0.792307
574.773010	0.791654
576.716003	0.791553
578.682983	0.787330
580.676025	0.767069
582.693970	0.751232
584.737000	0.731876
586.807007	0.718402
588.903015	0.679538
591.026001	0.659326
593.176025	0.635997
595.354004	0.611714
597.559021	0.593112
599.793030	0.575716
602.054993	0.561689
604.346985	0.553946
606.666992	0.537556
609.017029	0.532780
611.398010	0.529009
613.807983	0.524133
616.250000	0.520261
618.721985	0.515535
621.226013	0.507692
623.762024	0.504374
626.330017	0.501961
628.931030	0.498894
631.565002	0.485822
634.232971	0.482554
636.934021	0.481448
639.669983	0.472348
642.440002	0.463449
645.245972	0.447461
648.085999	0.424384
650.963013	0.398090
653.875977	0.371493
656.825989	0.324535
659.812988	0.263902
662.836975	0.192157
665.898987	0.112066
669.000000	0.090397
