# Neon and Xenon glow discharge and blue phosphor night-lights/indicators
#
#    Spectral data Copyright (c) 1998-2009 by I.N. Galidakis          
#                                                                     
#    Extracted from page:                                             
#    <http://ioannis.virtualcomposer2000.com/spectroscope/amici.html> 
#                                                                     
#    This data is distributed in the hope that it will be useful,     
#    but WITHOUT ANY WARRANTY; without even the implied warranty of   
#    MERCHANTABILITY or FITNESS FOR A PARTICULAR PURPOSE.  See the    
#    CCL 3.0 Creative Commons License 3.0 for more details.           
#                                                                     
#    You should have received a copy of the CCL 3.0                   
#    along with this program.  If not, see:                           
#    <http://creativecommons.org/licenses/by/3.0/>.                   
#
404.756989	0.015686
404.901001	0.015686
405.054993	0.000000
405.221008	0.000000
405.398010	0.000000
405.584991	0.000000
405.782013	0.000000
405.989990	0.000000
406.208008	0.000000
406.436005	0.000000
406.674011	0.000000
406.920990	0.000000
407.177002	0.000000
407.442993	0.000000
407.717010	0.000000
408.000000	0.000000
408.291992	0.000000
408.592010	0.000000
408.901001	0.000000
409.217987	0.000000
409.541992	0.000000
409.875000	0.000000
410.214996	0.000000
410.562988	0.000000
410.917999	0.000000
411.279999	0.000000
411.649994	0.000000
412.026001	0.000000
412.408997	0.000000
412.799011	0.000000
413.195007	0.000000
413.596985	0.000000
414.006012	0.000000
414.420990	0.000000
414.842010	0.000000
415.269012	0.000000
415.701996	0.000000
416.140015	0.000000
416.584015	0.000000
417.032990	0.000000
417.487000	0.000000
417.946991	0.000000
418.411987	0.000000
418.881989	0.000000
419.355988	0.000000
419.835999	0.000000
420.320007	0.000000
420.808990	0.000000
421.302002	0.000000
421.799988	0.000000
422.302002	0.000000
422.808990	0.000000
423.319000	0.000000
423.834015	0.000000
424.352997	0.000000
424.876007	0.000000
425.402008	0.000000
425.933014	0.000000
426.467010	0.000000
427.005005	0.000000
427.546997	0.000000
428.092010	0.000000
428.640991	0.000000
429.194000	0.000000
429.750000	0.000000
430.308990	0.000000
430.872009	0.006234
431.437988	0.007039
432.006989	0.009251
432.579010	0.011865
433.154999	0.014279
433.734009	0.017697
434.316010	0.024133
434.901001	0.025742
435.489990	0.042082
436.080994	0.052740
436.675995	0.064555
437.273987	0.079688
437.873993	0.098592
438.477997	0.117697
439.084991	0.135495
439.695007	0.152137
440.307007	0.176621
440.923004	0.198743
441.541992	0.222373
442.164001	0.244746
442.789001	0.266616
443.416992	0.291654
444.048004	0.303017
444.683014	0.320563
445.320007	0.363298
445.959991	0.387682
446.604004	0.399196
447.251007	0.418401
447.901001	0.440674
448.553986	0.457918
449.209991	0.478683
449.869995	0.494369
450.532990	0.511010
451.200012	0.515133
451.869995	0.522574
452.542999	0.535495
453.220001	0.539919
453.901001	0.535445
454.584991	0.536903
455.273010	0.543438
455.964996	0.545550
456.660004	0.546556
457.359009	0.555505
458.062988	0.561237
458.769989	0.563097
459.480988	0.568376
460.196991	0.575917
460.915985	0.576269
461.640015	0.581850
462.368988	0.605631
463.101990	0.606184
463.838989	0.580442
464.580994	0.551081
465.328003	0.530719
466.079987	0.558874
466.835999	0.592308
467.597992	0.610256
468.364990	0.565510
469.136993	0.528104
469.914001	0.525993
470.696991	0.509653
471.484985	0.476621
472.278992	0.479739
473.079010	0.499447
473.885010	0.488135
474.696991	0.444646
475.515015	0.409754
476.338989	0.388939
477.170013	0.379889
478.007996	0.366415
478.851990	0.370538
479.703003	0.374057
480.559998	0.398391
481.424988	0.400653
482.298004	0.423429
483.177002	0.470287
484.063995	0.518652
484.959015	0.533283
485.862000	0.535344
486.773010	0.533635
487.691986	0.532177
488.619995	0.498492
489.554993	0.467823
490.500000	0.443540
491.453003	0.424133
492.415985	0.372046
493.388000	0.325339
494.368988	0.289693
495.359009	0.260684
496.359985	0.242785
497.369995	0.217345
498.390991	0.185822
499.420990	0.156712
500.463013	0.134037
501.515015	0.116440
502.578003	0.110307
503.652008	0.093162
504.737000	0.083208
505.834015	0.073907
506.942993	0.069482
508.062988	0.069784
509.196014	0.071946
510.341003	0.071745
511.498993	0.070538
512.669006	0.065913
513.853027	0.064354
515.049011	0.061589
516.260010	0.059477
517.484009	0.058069
518.721985	0.055204
519.973999	0.050729
521.239990	0.048919
522.521973	0.047863
523.817993	0.046657
525.129028	0.046556
526.455994	0.048064
527.797974	0.048869
529.156982	0.052740
530.531006	0.058723
531.921997	0.065309
533.330017	0.099900
534.755005	0.144193
536.197021	0.205531
537.656006	0.273353
539.132996	0.334540
540.629028	0.345953
542.142029	0.330568
543.674988	0.296480
545.226013	0.242685
546.796021	0.196732
548.385986	0.157617
549.994995	0.112670
551.625000	0.078130
553.275024	0.053645
554.945984	0.029915
556.637024	0.025742
558.349976	0.021569
560.083984	0.021166
561.841003	0.019004
563.619019	0.017697
565.419983	0.017396
567.244019	0.017898
569.091003	0.020463
570.960999	0.021921
572.854980	0.042484
574.773010	0.093162
576.716003	0.149422
578.682983	0.239467
580.676025	0.320111
582.693970	0.325541
584.737000	0.311664
586.807007	0.281197
588.903015	0.219708
591.026001	0.192861
593.176025	0.167371
595.354004	0.147109
597.559021	0.147813
599.793030	0.167873
602.054993	0.238562
604.346985	0.315586
606.666992	0.380191
609.017029	0.378532
611.398010	0.351232
613.807983	0.302413
616.250000	0.234289
618.721985	0.187029
621.226013	0.172851
623.762024	0.163348
626.330017	0.140422
628.931030	0.131021
631.565002	0.123881
634.232971	0.111061
636.934021	0.101156
639.669983	0.086526
642.440002	0.078029
645.245972	0.062293
648.085999	0.053193
650.963013	0.039970
653.875977	0.034540
656.825989	0.018803
659.812988	0.010558
662.836975	0.005732
665.898987	0.005530
669.000000	0.005430
