# Neon and Xenon glow discharge and green phosphor night-lights/indicators
#
#    Spectral data Copyright (c) 1998-2009 by I.N. Galidakis          
#                                                                     
#    Extracted from page:                                             
#    <http://ioannis.virtualcomposer2000.com/spectroscope/amici.html> 
#                                                                     
#    This data is distributed in the hope that it will be useful,     
#    but WITHOUT ANY WARRANTY; without even the implied warranty of   
#    MERCHANTABILITY or FITNESS FOR A PARTICULAR PURPOSE.  See the    
#    CCL 3.0 Creative Commons License 3.0 for more details.           
#                                                                     
#    You should have received a copy of the CCL 3.0                   
#    along with this program.  If not, see:                           
#    <http://creativecommons.org/licenses/by/3.0/>.                   
#
404.756989	0.011765
404.901001	0.011765
405.054993	0.012569
405.221008	0.016089
405.398010	0.019206
405.584991	0.018803
405.782013	0.015284
405.989990	0.011765
406.208008	0.007843
406.436005	0.004324
406.674011	0.000000
406.920990	0.000000
407.177002	0.000000
407.442993	0.000000
407.717010	0.000000
408.000000	0.000000
408.291992	0.000000
408.592010	0.000000
408.901001	0.000000
409.217987	0.000000
409.541992	0.000000
409.875000	0.000000
410.214996	0.000000
410.562988	0.000000
410.917999	0.000000
411.279999	0.000000
411.649994	0.000000
412.026001	0.000000
412.408997	0.000000
412.799011	0.000000
413.195007	0.000000
413.596985	0.000000
414.006012	0.000000
414.420990	0.000000
414.842010	0.000000
415.269012	0.000000
415.701996	0.000000
416.140015	0.000000
416.584015	0.000000
417.032990	0.000000
417.487000	0.000000
417.946991	0.000000
418.411987	0.000804
418.881989	0.000804
419.355988	0.000804
419.835999	0.000804
420.320007	0.000804
420.808990	0.000804
421.302002	0.000804
421.799988	0.000804
422.302002	0.000804
422.808990	0.000804
423.319000	0.000804
423.834015	0.000804
424.352997	0.000804
424.876007	0.000804
425.402008	0.000804
425.933014	0.000804
426.467010	0.006234
427.005005	0.006234
427.546997	0.006234
428.092010	0.006234
428.640991	0.006234
429.194000	0.006234
429.750000	0.006234
430.308990	0.006234
430.872009	0.005631
431.437988	0.005631
432.006989	0.005631
432.579010	0.005631
433.154999	0.005631
433.734009	0.005631
434.316010	0.005631
434.901001	0.005631
435.489990	0.006234
436.080994	0.006234
436.675995	0.006234
437.273987	0.006234
437.873993	0.006234
438.477997	0.006234
439.084991	0.006234
439.695007	0.006234
440.307007	0.007843
440.923004	0.007843
441.541992	0.007843
442.164001	0.007843
442.789001	0.007843
443.416992	0.007843
444.048004	0.007843
444.683014	0.007843
445.320007	0.004927
445.959991	0.004927
446.604004	0.005329
447.251007	0.005732
447.901001	0.005732
448.553986	0.006134
449.209991	0.006536
449.869995	0.006536
450.532990	0.010055
451.200012	0.010508
451.869995	0.011765
452.542999	0.012619
453.220001	0.012670
453.901001	0.012720
454.584991	0.012418
455.273010	0.012066
455.964996	0.016843
456.660004	0.022021
457.359009	0.031725
458.062988	0.038361
458.769989	0.049975
459.480988	0.060633
460.196991	0.103167
460.915985	0.113575
461.640015	0.158572
462.368988	0.193665
463.101990	0.132881
463.838989	0.091604
464.580994	0.129311
465.328003	0.214178
466.079987	0.437406
466.835999	0.570085
467.597992	0.446506
468.364990	0.274862
469.136993	0.238763
469.914001	0.222474
470.696991	0.137154
471.484985	0.117647
472.278992	0.138160
473.079010	0.152338
473.885010	0.150226
474.696991	0.147662
475.515015	0.157969
476.338989	0.179286
477.170013	0.207944
478.007996	0.237657
478.851990	0.283660
479.703003	0.321418
480.559998	0.334087
481.424988	0.340221
482.298004	0.370437
483.177002	0.410307
484.063995	0.420060
484.959015	0.408949
485.862000	0.424786
486.773010	0.450779
487.691986	0.466818
488.619995	0.471695
489.554993	0.513072
490.500000	0.553846
491.453003	0.564153
492.415985	0.548215
493.388000	0.556058
494.368988	0.576973
495.359009	0.585369
496.359985	0.592408
497.369995	0.609653
498.390991	0.617948
499.420990	0.622976
500.463013	0.625540
501.515015	0.631171
502.578003	0.633082
503.652008	0.640975
504.737000	0.647411
505.834015	0.660835
506.942993	0.672902
508.062988	0.688588
509.196014	0.701056
510.341003	0.710156
511.498993	0.720714
512.669006	0.745148
513.853027	0.764606
515.049011	0.783912
516.260010	0.803670
517.484009	0.822675
518.721985	0.834892
519.973999	0.844998
521.239990	0.848668
522.521973	0.843540
523.817993	0.839518
525.129028	0.825792
526.455994	0.807592
527.797974	0.782755
529.156982	0.752841
530.531006	0.724284
531.921997	0.693112
533.330017	0.655907
534.755005	0.638009
536.197021	0.620764
537.656006	0.603469
539.132996	0.589090
540.629028	0.570588
542.142029	0.547361
543.674988	0.530267
545.226013	0.508145
546.796021	0.498894
548.385986	0.479186
549.994995	0.461790
551.625000	0.452389
553.275024	0.448567
554.945984	0.444093
556.637024	0.441579
558.349976	0.439769
560.083984	0.437154
561.841003	0.435294
563.619019	0.433886
565.419983	0.428809
567.244019	0.415636
569.091003	0.383711
570.960999	0.349723
572.854980	0.317597
574.773010	0.331574
576.716003	0.366013
578.682983	0.409452
580.676025	0.445098
582.693970	0.475616
584.737000	0.465561
586.807007	0.459075
588.903015	0.460835
591.026001	0.447662
593.176025	0.419155
595.354004	0.402262
597.559021	0.390799
599.793030	0.378934
602.054993	0.379739
604.346985	0.386023
606.666992	0.406285
609.017029	0.405229
611.398010	0.378532
613.807983	0.339819
616.250000	0.314228
618.721985	0.284616
621.226013	0.260281
623.762024	0.244143
626.330017	0.238411
628.931030	0.215284
631.565002	0.190850
634.232971	0.167069
636.934021	0.159276
639.669983	0.149070
642.440002	0.144897
645.245972	0.130166
648.085999	0.101106
650.963013	0.082303
653.875977	0.074962
656.825989	0.071091
659.812988	0.075314
662.836975	0.063650
665.898987	0.033333
669.000000	0.019859
