# RADIUM HRI-T 400W/Planta Plant growing Metal Halide Lamp with Mercury, indium and sodium iodides
#
#    Spectral data Copyright (c) 1998-2009 by I.N. Galidakis          
#                                                                     
#    Extracted from page:                                             
#    <http://ioannis.virtualcomposer2000.com/spectroscope/amici.html> 
#                                                                     
#    This data is distributed in the hope that it will be useful,     
#    but WITHOUT ANY WARRANTY; without even the implied warranty of   
#    MERCHANTABILITY or FITNESS FOR A PARTICULAR PURPOSE.  See the    
#    CCL 3.0 Creative Commons License 3.0 for more details.           
#                                                                     
#    You should have received a copy of the CCL 3.0                   
#    along with this program.  If not, see:                           
#    <http://creativecommons.org/licenses/by/3.0/>.                   
#
404.756989	0.125339
404.901001	0.122021
405.054993	0.124133
405.221008	0.123529
405.398010	0.126898
405.584991	0.139115
405.782013	0.155857
405.989990	0.171091
406.208008	0.170488
406.436005	0.150277
406.674011	0.141931
406.920990	0.139467
407.177002	0.138059
407.442993	0.136350
407.717010	0.140271
408.000000	0.156611
408.291992	0.169734
408.592010	0.174560
408.901001	0.196782
409.217987	0.244746
409.541992	0.285219
409.875000	0.368276
410.214996	0.490246
410.562988	0.524484
410.917999	0.549874
411.279999	0.558723
411.649994	0.543087
412.026001	0.538059
412.408997	0.542534
412.799011	0.554449
413.195007	0.552840
413.596985	0.507441
414.006012	0.440070
414.420990	0.348718
414.842010	0.296983
415.269012	0.269834
415.701996	0.237356
416.140015	0.213927
416.584015	0.205631
417.032990	0.200352
417.487000	0.186576
417.946991	0.176923
418.411987	0.177778
418.881989	0.175918
419.355988	0.174460
419.835999	0.175817
420.320007	0.178482
420.808990	0.176420
421.302002	0.172398
421.799988	0.172449
422.302002	0.174661
422.808990	0.176973
423.319000	0.180493
423.834015	0.180996
424.352997	0.183308
424.876007	0.186828
425.402008	0.190447
425.933014	0.192710
426.467010	0.197788
427.005005	0.194922
427.546997	0.197637
428.092010	0.202916
428.640991	0.205732
429.194000	0.210357
429.750000	0.215837
430.308990	0.217949
430.872009	0.223982
431.437988	0.231926
432.006989	0.244042
432.579010	0.250176
433.154999	0.258572
433.734009	0.274661
434.316010	0.289040
434.901001	0.366113
435.489990	0.456762
436.080994	0.511915
436.675995	0.544796
437.273987	0.661840
437.873993	0.708698
438.477997	0.552841
439.084991	0.493716
439.695007	0.470840
440.307007	0.420161
440.923004	0.408195
441.541992	0.409150
442.164001	0.414681
442.789001	0.420060
443.416992	0.442132
444.048004	0.464103
444.683014	0.477124
445.320007	0.503469
445.959991	0.517597
446.604004	0.530317
447.251007	0.540271
447.901001	0.548517
448.553986	0.552689
449.209991	0.555505
449.869995	0.554600
450.532990	0.552639
451.200012	0.579135
451.869995	0.628155
452.542999	0.651685
453.220001	0.783911
453.901001	0.817144
454.584991	0.765209
455.273010	0.716491
455.964996	0.737205
456.660004	0.756310
457.359009	0.721670
458.062988	0.660382
458.769989	0.612619
459.480988	0.592408
460.196991	0.563952
460.915985	0.546405
461.640015	0.519859
462.368988	0.489140
463.101990	0.466516
463.838989	0.439065
464.580994	0.426194
465.328003	0.412971
466.079987	0.405782
466.835999	0.405530
467.597992	0.412468
468.364990	0.431875
469.136993	0.440473
469.914001	0.420915
470.696991	0.409854
471.484985	0.395173
472.278992	0.389995
473.079010	0.383308
473.885010	0.371594
474.696991	0.377828
475.515015	0.365561
476.338989	0.368426
477.170013	0.372499
478.007996	0.362997
478.851990	0.365360
479.703003	0.366415
480.559998	0.364605
481.424988	0.372247
482.298004	0.367823
483.177002	0.362997
484.063995	0.365058
484.959015	0.357718
485.862000	0.358019
486.773010	0.350830
487.691986	0.356310
488.619995	0.348768
489.554993	0.348969
490.500000	0.328457
491.453003	0.323027
492.415985	0.345199
493.388000	0.340976
494.368988	0.302313
495.359009	0.297637
496.359985	0.291654
497.369995	0.279437
498.390991	0.345551
499.420990	0.405279
500.463013	0.334892
501.515015	0.268577
502.578003	0.233132
503.652008	0.206486
504.737000	0.194922
505.834015	0.195224
506.942993	0.199648
508.062988	0.202765
509.196014	0.205380
510.341003	0.214228
511.498993	0.214329
512.669006	0.223580
513.853027	0.234741
515.049011	0.253293
516.260010	0.271543
517.484009	0.277174
518.721985	0.284012
519.973999	0.302463
521.239990	0.311865
522.521973	0.312519
523.817993	0.283610
525.129028	0.244897
526.455994	0.236903
527.797974	0.213826
529.156982	0.203318
530.531006	0.200000
531.921997	0.200050
533.330017	0.199196
534.755005	0.223027
536.197021	0.248165
537.656006	0.226244
539.132996	0.215385
540.629028	0.225893
542.142029	0.246053
543.674988	0.289995
545.226013	0.486928
546.796021	0.621871
548.385986	0.561689
549.994995	0.380593
551.625000	0.248768
553.275024	0.232680
554.945984	0.224887
556.637024	0.214731
558.349976	0.203218
560.083984	0.194520
561.841003	0.188587
563.619019	0.197788
565.419983	0.203369
567.244019	0.219558
569.091003	0.345701
570.960999	0.406586
572.854980	0.264505
574.773010	0.178733
576.716003	0.307893
578.682983	0.528054
580.676025	0.590447
582.693970	0.445550
584.737000	0.320261
586.807007	0.311463
588.903015	0.474309
591.026001	0.611463
593.176025	0.617999
595.354004	0.524133
597.559021	0.483358
599.793030	0.516641
602.054993	0.557466
604.346985	0.571795
606.666992	0.562594
609.017029	0.546757
611.398010	0.534942
613.807983	0.504676
616.250000	0.502061
618.721985	0.486878
621.226013	0.446054
623.762024	0.417647
626.330017	0.403268
628.931030	0.392408
631.565002	0.379789
634.232971	0.374309
636.934021	0.365460
639.669983	0.350076
642.440002	0.335244
645.245972	0.323932
648.085999	0.316340
650.963013	0.296531
653.875977	0.273353
656.825989	0.258069
659.812988	0.250578
662.836975	0.238210
665.898987	0.237858
669.000000	0.285420
