# PHILIPS spectral Rubidium Lamp - Continuous Rubidium low pressure thermionic discharge
#
#    Spectral data Copyright (c) 1998-2009 by I.N. Galidakis          
#                                                                     
#    Extracted from page:                                             
#    <http://ioannis.virtualcomposer2000.com/spectroscope/amici.html> 
#                                                                     
#    This data is distributed in the hope that it will be useful,     
#    but WITHOUT ANY WARRANTY; without even the implied warranty of   
#    MERCHANTABILITY or FITNESS FOR A PARTICULAR PURPOSE.  See the    
#    CCL 3.0 Creative Commons License 3.0 for more details.           
#                                                                     
#    You should have received a copy of the CCL 3.0                   
#    along with this program.  If not, see:                           
#    <http://creativecommons.org/licenses/by/3.0/>.                   
#
404.756989	0.003922
404.901001	0.003922
405.054993	0.003922
405.221008	0.003922
405.398010	0.003922
405.584991	0.003922
405.782013	0.003922
405.989990	0.003922
406.208008	0.003922
406.436005	0.003922
406.674011	0.002815
406.920990	0.002815
407.177002	0.003218
407.442993	0.003318
407.717010	0.003519
408.000000	0.003519
408.291992	0.003117
408.592010	0.003117
408.901001	0.003620
409.217987	0.003167
409.541992	0.003017
409.875000	0.002614
410.214996	0.002614
410.562988	0.002614
410.917999	0.002765
411.279999	0.002815
411.649994	0.001911
412.026001	0.001911
412.408997	0.001961
412.799011	0.001961
413.195007	0.002413
413.596985	0.002413
414.006012	0.002464
414.420990	0.002464
414.842010	0.003017
415.269012	0.005078
415.701996	0.009251
416.140015	0.012670
416.584015	0.019055
417.032990	0.036652
417.487000	0.064656
417.946991	0.088034
418.411987	0.247461
418.881989	0.380493
419.355988	0.466918
419.835999	0.565862
420.320007	0.622876
420.808990	0.540422
421.302002	0.533534
421.799988	0.633585
422.302002	0.578029
422.808990	0.347461
423.319000	0.165058
423.834015	0.103218
424.352997	0.068275
424.876007	0.059980
425.402008	0.034640
425.933014	0.026747
426.467010	0.026546
427.005005	0.025038
427.546997	0.023680
428.092010	0.023328
428.640991	0.022323
429.194000	0.020764
429.750000	0.022172
430.308990	0.023429
430.872009	0.026797
431.437988	0.026797
432.006989	0.026546
432.579010	0.026848
433.154999	0.028456
433.734009	0.029663
434.316010	0.032529
434.901001	0.033736
435.489990	0.041729
436.080994	0.041729
436.675995	0.044595
437.273987	0.044897
437.873993	0.046606
438.477997	0.051634
439.084991	0.052891
439.695007	0.054148
440.307007	0.056410
440.923004	0.060030
441.541992	0.062695
442.164001	0.064203
442.789001	0.067170
443.416992	0.073152
444.048004	0.079487
444.683014	0.081448
445.320007	0.089995
445.959991	0.090045
446.604004	0.090749
447.251007	0.094118
447.901001	0.097838
448.553986	0.102313
449.209991	0.105732
449.869995	0.107190
450.532990	0.115334
451.200012	0.117748
451.869995	0.117898
452.542999	0.118452
453.220001	0.123429
453.901001	0.131021
454.584991	0.135596
455.273010	0.134942
455.964996	0.177677
456.660004	0.215837
457.359009	0.304726
458.062988	0.429060
458.769989	0.457014
459.480988	0.312921
460.196991	0.189392
460.915985	0.182554
461.640015	0.234490
462.368988	0.246757
463.101990	0.212167
463.838989	0.170035
464.580994	0.164605
465.328003	0.165812
466.079987	0.162041
466.835999	0.165209
467.597992	0.169130
468.364990	0.172549
469.136993	0.174862
469.914001	0.177476
470.696991	0.179537
471.484985	0.178130
472.278992	0.181146
473.079010	0.179839
473.885010	0.172700
474.696991	0.176823
475.515015	0.179186
476.338989	0.182655
477.170013	0.182303
478.007996	0.181046
478.851990	0.181549
479.703003	0.178482
480.559998	0.179487
481.424988	0.180543
482.298004	0.174258
483.177002	0.173353
484.063995	0.172901
484.959015	0.171443
485.862000	0.163147
486.773010	0.162695
487.691986	0.159326
488.619995	0.158874
489.554993	0.158120
490.500000	0.145450
491.453003	0.151735
492.415985	0.139417
493.388000	0.117245
494.368988	0.144998
495.359009	0.132278
496.359985	0.086777
497.369995	0.116993
498.390991	0.138311
499.420990	0.104977
500.463013	0.110005
501.515015	0.078079
502.578003	0.087230
503.652008	0.214932
504.737000	0.204173
505.834015	0.045651
506.942993	0.035747
508.062988	0.108497
509.196014	0.222071
510.341003	0.276772
511.498993	0.139618
512.669006	0.046003
513.853027	0.052036
515.049011	0.108195
516.260010	0.212217
517.484009	0.298592
518.721985	0.169633
519.973999	0.129663
521.239990	0.225540
522.521973	0.173806
523.817993	0.053092
525.129028	0.132529
526.455994	0.194470
527.797974	0.346003
529.156982	0.254651
530.531006	0.033937
531.921997	0.032730
533.330017	0.058623
534.755005	0.071192
536.197021	0.125138
537.656006	0.248467
539.132996	0.270639
540.629028	0.144042
542.142029	0.157667
543.674988	0.217848
545.226013	0.374258
546.796021	0.289995
548.385986	0.064555
549.994995	0.029160
551.625000	0.030216
553.275024	0.024434
554.945984	0.024032
556.637024	0.022826
558.349976	0.040624
560.083984	0.070588
561.841003	0.066868
563.619019	0.053595
565.419983	0.159125
567.244019	0.321368
569.091003	0.259930
570.960999	0.083007
572.854980	0.151181
574.773010	0.357315
576.716003	0.366667
578.682983	0.070739
580.676025	0.018200
582.693970	0.033585
584.737000	0.104072
586.807007	0.156259
588.903015	0.244294
591.026001	0.431876
593.176025	0.629311
595.354004	0.357969
597.559021	0.076420
599.793030	0.048718
602.054993	0.060332
604.346985	0.072800
606.666992	0.105078
609.017029	0.166717
611.398010	0.246204
613.807983	0.224535
616.250000	0.280895
618.721985	0.349472
621.226013	0.390950
623.762024	0.452690
626.330017	0.431071
628.931030	0.307843
631.565002	0.367320
634.232971	0.539970
636.934021	0.307441
639.669983	0.066616
642.440002	0.025892
645.245972	0.022323
648.085999	0.012971
650.963013	0.010860
653.875977	0.008748
656.825989	0.006285
659.812988	0.005631
662.836975	0.003821
665.898987	0.001709
669.000000	0.000905
