# The near visible UVA emissions from a high pressure Mercury clear lamp
#
#    Spectral data Copyright (c) 1998-2009 by I.N. Galidakis          
#                                                                     
#    Extracted from page:                                             
#    <http://ioannis.virtualcomposer2000.com/spectroscope/amici.html> 
#                                                                     
#    This data is distributed in the hope that it will be useful,     
#    but WITHOUT ANY WARRANTY; without even the implied warranty of   
#    MERCHANTABILITY or FITNESS FOR A PARTICULAR PURPOSE.  See the    
#    CCL 3.0 Creative Commons License 3.0 for more details.           
#                                                                     
#    You should have received a copy of the CCL 3.0                   
#    along with this program.  If not, see:                           
#    <http://creativecommons.org/licenses/by/3.0/>.                   
#
404.756989	0.101961
404.901001	0.101961
405.054993	0.101961
405.221008	0.101961
405.398010	0.101961
405.584991	0.101961
405.782013	0.101961
405.989990	0.101961
406.208008	0.101961
406.436005	0.101961
406.674011	0.100050
406.920990	0.094922
407.177002	0.098844
407.442993	0.102614
407.717010	0.116843
408.000000	0.115133
408.291992	0.211111
408.592010	0.561639
408.901001	0.590146
409.217987	0.457517
409.541992	0.563600
409.875000	0.371393
410.214996	0.159075
410.562988	0.105581
410.917999	0.248115
411.279999	0.529261
411.649994	0.376471
412.026001	0.101307
412.408997	0.088788
412.799011	0.109502
413.195007	0.095877
413.596985	0.095073
414.006012	0.099397
414.420990	0.093565
414.842010	0.095978
415.269012	0.097134
415.701996	0.098894
416.140015	0.099196
416.584015	0.097888
417.032990	0.098240
417.487000	0.099899
417.946991	0.101106
418.411987	0.092810
418.881989	0.094269
419.355988	0.095174
419.835999	0.094218
420.320007	0.092609
420.808990	0.090347
421.302002	0.089442
421.799988	0.089593
422.302002	0.093213
422.808990	0.094118
423.319000	0.095224
423.834015	0.095626
424.352997	0.095525
424.876007	0.094218
425.402008	0.092207
425.933014	0.091202
426.467010	0.103218
427.005005	0.101609
427.546997	0.097386
428.092010	0.093766
428.640991	0.092559
429.194000	0.090146
429.750000	0.088336
430.308990	0.088738
430.872009	0.092509
431.437988	0.089895
432.006989	0.087079
432.579010	0.085772
433.154999	0.084967
433.734009	0.086476
434.316010	0.089492
434.901001	0.091302
435.489990	0.093766
436.080994	0.084967
436.675995	0.074661
437.273987	0.067873
437.873993	0.066114
438.477997	0.068426
439.084991	0.072298
439.695007	0.074812
440.307007	0.065058
440.923004	0.066968
441.541992	0.066415
442.164001	0.066265
442.789001	0.083057
443.416992	0.118401
444.048004	0.149372
444.683014	0.156863
445.320007	0.115385
445.959991	0.095676
446.604004	0.083560
447.251007	0.086274
447.901001	0.088738
448.553986	0.082805
449.209991	0.076018
449.869995	0.075918
450.532990	0.073856
451.200012	0.089643
451.869995	0.110860
452.542999	0.122373
453.220001	0.114329
453.901001	0.095224
454.584991	0.079990
455.273010	0.073957
455.964996	0.088738
456.660004	0.083208
457.359009	0.088738
458.062988	0.101408
458.769989	0.110960
459.480988	0.113122
460.196991	0.121518
460.915985	0.133333
461.640015	0.143539
462.368988	0.164756
463.101990	0.186526
463.838989	0.191051
464.580994	0.186878
465.328003	0.178029
466.079987	0.177225
466.835999	0.180493
467.597992	0.187079
468.364990	0.190146
469.136993	0.190799
469.914001	0.187330
470.696991	0.192609
471.484985	0.218351
472.278992	0.250930
473.079010	0.282906
473.885010	0.323931
474.696991	0.369683
475.515015	0.458974
476.338989	0.579537
477.170013	0.583459
478.007996	0.467723
478.851990	0.388889
479.703003	0.371292
480.559998	0.368628
481.424988	0.371242
482.298004	0.383510
483.177002	0.399698
484.063995	0.417547
484.959015	0.436350
485.862000	0.451332
486.773010	0.461840
487.691986	0.476169
488.619995	0.481046
489.554993	0.483359
490.500000	0.488487
491.453003	0.493866
492.415985	0.496581
493.388000	0.499548
494.368988	0.499698
495.359009	0.498844
496.359985	0.501006
497.369995	0.496833
498.390991	0.509100
499.420990	0.535244
500.463013	0.539618
501.515015	0.518502
502.578003	0.499950
503.652008	0.504072
504.737000	0.509552
505.834015	0.511966
506.942993	0.511463
508.062988	0.507491
509.196014	0.508698
510.341003	0.510357
511.498993	0.514278
512.669006	0.517295
513.853027	0.517546
515.049011	0.551835
516.260010	0.604424
517.484009	0.895023
518.721985	0.972750
519.973999	0.951333
521.239990	0.894872
522.521973	0.698291
523.817993	0.620563
525.129028	0.591956
526.455994	0.551030
527.797974	0.693816
529.156982	0.866014
530.531006	0.764605
531.921997	0.608547
533.330017	0.527602
534.755005	0.520161
536.197021	0.511111
537.656006	0.508648
539.132996	0.525339
540.629028	0.537707
542.142029	0.528557
543.674988	0.516591
545.226013	0.516943
546.796021	0.519155
548.385986	0.516340
549.994995	0.514530
551.625000	0.505430
553.275024	0.496028
554.945984	0.484666
556.637024	0.475113
558.349976	0.472147
560.083984	0.469432
561.841003	0.468376
563.619019	0.464454
565.419983	0.464454
567.244019	0.459477
569.091003	0.454047
570.960999	0.448818
572.854980	0.441478
574.773010	0.436048
576.716003	0.428758
578.682983	0.414480
580.676025	0.405832
582.693970	0.396531
584.737000	0.392308
586.807007	0.383761
588.903015	0.386677
591.026001	0.383510
593.176025	0.383510
595.354004	0.383359
597.559021	0.385671
599.793030	0.389693
602.054993	0.395626
604.346985	0.398140
606.666992	0.397386
609.017029	0.397687
611.398010	0.411765
613.807983	0.427753
616.250000	0.446003
618.721985	0.461136
621.226013	0.478934
623.762024	0.491252
626.330017	0.502112
628.931030	0.503972
631.565002	0.511463
634.232971	0.506838
636.934021	0.533886
639.669983	0.541025
642.440002	0.509402
645.245972	0.803720
648.085999	0.792358
650.963013	0.561739
653.875977	0.537305
656.825989	0.504726
659.812988	0.370287
662.836975	0.290095
665.898987	0.193313
669.000000	0.187532
