# Stroboscopic flash. Xenon I, likely II and perhaps III
#
#    Spectral data Copyright (c) 1998-2009 by I.N. Galidakis          
#                                                                     
#    Extracted from page:                                             
#    <http://ioannis.virtualcomposer2000.com/spectroscope/amici.html> 
#                                                                     
#    This data is distributed in the hope that it will be useful,     
#    but WITHOUT ANY WARRANTY; without even the implied warranty of   
#    MERCHANTABILITY or FITNESS FOR A PARTICULAR PURPOSE.  See the    
#    CCL 3.0 Creative Commons License 3.0 for more details.           
#                                                                     
#    You should have received a copy of the CCL 3.0                   
#    along with this program.  If not, see:                           
#    <http://creativecommons.org/licenses/by/3.0/>.                   
#
404.756989	0.035143
404.901001	0.035194
405.054993	0.034490
405.221008	0.034942
405.398010	0.034339
405.584991	0.034238
405.782013	0.034640
405.989990	0.033987
406.208008	0.034741
406.436005	0.034590
406.674011	0.034389
406.920990	0.033786
407.177002	0.034993
407.442993	0.035797
407.717010	0.034590
408.000000	0.034389
408.291992	0.035596
408.592010	0.034540
408.901001	0.034188
409.217987	0.034088
409.541992	0.030618
409.875000	0.028306
410.214996	0.028255
410.562988	0.026596
410.917999	0.023630
411.279999	0.023429
411.649994	0.033535
412.026001	0.037959
412.408997	0.041931
412.799011	0.045752
413.195007	0.053193
413.596985	0.056913
414.006012	0.062293
414.420990	0.068275
414.842010	0.080794
415.269012	0.091704
415.701996	0.105279
416.140015	0.112368
416.584015	0.116390
417.032990	0.120965
417.487000	0.125641
417.946991	0.134389
418.411987	0.163399
418.881989	0.169231
419.355988	0.166516
419.835999	0.159175
420.320007	0.150075
420.808990	0.157315
421.302002	0.185671
421.799988	0.200100
422.302002	0.213977
422.808990	0.209050
423.319000	0.181599
423.834015	0.153695
424.352997	0.130267
424.876007	0.119608
425.402008	0.113424
425.933014	0.110960
426.467010	0.117144
427.005005	0.120714
427.546997	0.129412
428.092010	0.132378
428.640991	0.133937
429.194000	0.136903
429.750000	0.147059
430.308990	0.160583
430.872009	0.195224
431.437988	0.207793
432.006989	0.219759
432.579010	0.216440
433.154999	0.188587
433.734009	0.169834
434.316010	0.161237
434.901001	0.162896
435.489990	0.169784
436.080994	0.177275
436.675995	0.187230
437.273987	0.202363
437.873993	0.223027
438.477997	0.242534
439.084991	0.256360
439.695007	0.258220
440.307007	0.243087
440.923004	0.230468
441.541992	0.213675
442.164001	0.205983
442.789001	0.210357
443.416992	0.228457
444.048004	0.258120
444.683014	0.276722
445.320007	0.300050
445.959991	0.304173
446.604004	0.305279
447.251007	0.291855
447.901001	0.261036
448.553986	0.233836
449.209991	0.211011
449.869995	0.210106
450.532990	0.204826
451.200012	0.213022
451.869995	0.236652
452.542999	0.252137
453.220001	0.262695
453.901001	0.265661
454.584991	0.260533
455.273010	0.258270
455.964996	0.244696
456.660004	0.243439
457.359009	0.256310
458.062988	0.269080
458.769989	0.292659
459.480988	0.306536
460.196991	0.316189
460.915985	0.322222
461.640015	0.314580
462.368988	0.290950
463.101990	0.265510
463.838989	0.256310
464.580994	0.256913
465.328003	0.260432
466.079987	0.270940
466.835999	0.278984
467.597992	0.305028
468.364990	0.306033
469.136993	0.303117
469.914001	0.293967
470.696991	0.284867
471.484985	0.277979
472.278992	0.274409
473.079010	0.273052
473.885010	0.271443
474.696991	0.270035
475.515015	0.264756
476.338989	0.260935
477.170013	0.266365
478.007996	0.278230
478.851990	0.291453
479.703003	0.298140
480.559998	0.287431
481.424988	0.298240
482.298004	0.327904
483.177002	0.366667
484.063995	0.469985
484.959015	0.577375
485.862000	0.586224
486.773010	0.551533
487.691986	0.465410
488.619995	0.465712
489.554993	0.466918
490.500000	0.437406
491.453003	0.393011
492.415985	0.400704
493.388000	0.430116
494.368988	0.426596
495.359009	0.330619
496.359985	0.290498
497.369995	0.302061
498.390991	0.346757
499.420990	0.356963
500.463013	0.348618
501.515015	0.339518
502.578003	0.331071
503.652008	0.328859
504.737000	0.334792
505.834015	0.341679
506.942993	0.353243
508.062988	0.370287
509.196014	0.390447
510.341003	0.411211
511.498993	0.419407
512.669006	0.405932
513.853027	0.402966
515.049011	0.386727
516.260010	0.381347
517.484009	0.388889
518.721985	0.413273
519.973999	0.467673
521.239990	0.489442
522.521973	0.481649
523.817993	0.450528
525.129028	0.418150
526.455994	0.434239
527.797974	0.468577
529.156982	0.516692
530.531006	0.601609
531.921997	0.663097
533.330017	0.667572
534.755005	0.640373
536.197021	0.590648
537.656006	0.571895
539.132996	0.545047
540.629028	0.521367
542.142029	0.510508
543.674988	0.523529
545.226013	0.574158
546.796021	0.588336
548.385986	0.586475
549.994995	0.559678
551.625000	0.507743
553.275024	0.468477
554.945984	0.427803
556.637024	0.403569
558.349976	0.388135
560.083984	0.377727
561.841003	0.355405
563.619019	0.342383
565.419983	0.323127
567.244019	0.319809
569.091003	0.317094
570.960999	0.317949
572.854980	0.333535
574.773010	0.334741
576.716003	0.333585
578.682983	0.327753
580.676025	0.303519
582.693970	0.291503
584.737000	0.284867
586.807007	0.267974
588.903015	0.261337
591.026001	0.280895
593.176025	0.296279
595.354004	0.317446
597.559021	0.341679
599.793030	0.360483
602.054993	0.366365
604.346985	0.370337
606.666992	0.371493
609.017029	0.374912
611.398010	0.375415
613.807983	0.376672
616.250000	0.378281
618.721985	0.377325
621.226013	0.374912
623.762024	0.368829
626.330017	0.349120
628.931030	0.330669
631.565002	0.316692
634.232971	0.294972
636.934021	0.278683
639.669983	0.261689
642.440002	0.248115
645.245972	0.233535
648.085999	0.216290
650.963013	0.199598
653.875977	0.183308
656.825989	0.161438
659.812988	0.146707
662.836975	0.129211
665.898987	0.117496
669.000000	0.113374
