# PHILIPS ActiViva "Natural" Triphosphor Fluorescent
#
#    Spectral data Copyright (c) 1998-2009 by I.N. Galidakis          
#                                                                     
#    Extracted from page:                                             
#    <http://ioannis.virtualcomposer2000.com/spectroscope/amici.html> 
#                                                                     
#    This data is distributed in the hope that it will be useful,     
#    but WITHOUT ANY WARRANTY; without even the implied warranty of   
#    MERCHANTABILITY or FITNESS FOR A PARTICULAR PURPOSE.  See the    
#    CCL 3.0 Creative Commons License 3.0 for more details.           
#                                                                     
#    You should have received a copy of the CCL 3.0                   
#    along with this program.  If not, see:                           
#    <http://creativecommons.org/licenses/by/3.0/>.                   
#
404.756989	0.011765
404.901001	0.011765
405.054993	0.018502
405.221008	0.024183
405.398010	0.077677
405.584991	0.237959
405.782013	0.329713
405.989990	0.516189
406.208008	0.452489
406.436005	0.114631
406.674011	0.031423
406.920990	0.022423
407.177002	0.024183
407.442993	0.032931
407.717010	0.052790
408.000000	0.087029
408.291992	0.101609
408.592010	0.079286
408.901001	0.042132
409.217987	0.043087
409.541992	0.046808
409.875000	0.051634
410.214996	0.058673
410.562988	0.067270
410.917999	0.074661
411.279999	0.078733
411.649994	0.083509
412.026001	0.092810
412.408997	0.105933
412.799011	0.116642
413.195007	0.125641
413.596985	0.137657
414.006012	0.151332
414.420990	0.162745
414.842010	0.175616
415.269012	0.185872
415.701996	0.203368
416.140015	0.223781
416.584015	0.244646
417.032990	0.253746
417.487000	0.263952
417.946991	0.281951
418.411987	0.295676
418.881989	0.309100
419.355988	0.330719
419.835999	0.355053
420.320007	0.377376
420.808990	0.395324
421.302002	0.408346
421.799988	0.416340
422.302002	0.439065
422.808990	0.450981
423.319000	0.467572
423.834015	0.487230
424.352997	0.500754
424.876007	0.509804
425.402008	0.517949
425.933014	0.521367
426.467010	0.530166
427.005005	0.532277
427.546997	0.530920
428.092010	0.534188
428.640991	0.537607
429.194000	0.539618
429.750000	0.545751
430.308990	0.543288
430.872009	0.548265
431.437988	0.550025
432.006989	0.553092
432.579010	0.558421
433.154999	0.565410
433.734009	0.561337
434.316010	0.565862
434.901001	0.550980
435.489990	0.543087
436.080994	0.682403
436.675995	0.830417
437.273987	0.682404
437.873993	0.555857
438.477997	0.579537
439.084991	0.592106
439.695007	0.590799
440.307007	0.599447
440.923004	0.598391
441.541992	0.603318
442.164001	0.607994
442.789001	0.606887
443.416992	0.606938
444.048004	0.614630
444.683014	0.619356
445.320007	0.616642
445.959991	0.618703
446.604004	0.620462
447.251007	0.622474
447.901001	0.627150
448.553986	0.628406
449.209991	0.629512
449.869995	0.628909
450.532990	0.634942
451.200012	0.630820
451.869995	0.635345
452.542999	0.640976
453.220001	0.640322
453.901001	0.642031
454.584991	0.645802
455.273010	0.647612
455.964996	0.650478
456.660004	0.653847
457.359009	0.655657
458.062988	0.660232
458.769989	0.658120
459.480988	0.663349
460.196991	0.660483
460.915985	0.657215
461.640015	0.655506
462.368988	0.654701
463.101990	0.643138
463.838989	0.632781
464.580994	0.626949
465.328003	0.622474
466.079987	0.612820
466.835999	0.600603
467.597992	0.591051
468.364990	0.592106
469.136993	0.583509
469.914001	0.573806
470.696991	0.566465
471.484985	0.564655
472.278992	0.560985
473.079010	0.558471
473.885010	0.556159
474.696991	0.554701
475.515015	0.553695
476.338989	0.553042
477.170013	0.549371
478.007996	0.543137
478.851990	0.542182
479.703003	0.543992
480.559998	0.530568
481.424988	0.532881
482.298004	0.549321
483.177002	0.544897
484.063995	0.542333
484.959015	0.540623
485.862000	0.627602
486.773010	0.602011
487.691986	0.559980
488.619995	0.528205
489.554993	0.561086
490.500000	0.584615
491.453003	0.547964
492.415985	0.555354
493.388000	0.551634
494.368988	0.472348
495.359009	0.435345
496.359985	0.471041
497.369995	0.434540
498.390991	0.364052
499.420990	0.318301
500.463013	0.312670
501.515015	0.308296
502.578003	0.267370
503.652008	0.248467
504.737000	0.240121
505.834015	0.231172
506.942993	0.224485
508.062988	0.223077
509.196014	0.222775
510.341003	0.215033
511.498993	0.209904
512.669006	0.207743
513.853027	0.201810
515.049011	0.195073
516.260010	0.191151
517.484009	0.185822
518.721985	0.178683
519.973999	0.171644
521.239990	0.167521
522.521973	0.162997
523.817993	0.160030
525.129028	0.165862
526.455994	0.168376
527.797974	0.166717
529.156982	0.181247
530.531006	0.233484
531.921997	0.279035
533.330017	0.278984
534.755005	0.369482
536.197021	0.466969
537.656006	0.472700
539.132996	0.527602
540.629028	0.593363
542.142029	0.520965
543.674988	0.564404
545.226013	0.618703
546.796021	0.548517
548.385986	0.464907
549.994995	0.428105
551.625000	0.399447
553.275024	0.383811
554.945984	0.287481
556.637024	0.220664
558.349976	0.166164
560.083984	0.149221
561.841003	0.124485
563.619019	0.110307
565.419983	0.102564
567.244019	0.098441
569.091003	0.096028
570.960999	0.089492
572.854980	0.092609
574.773010	0.266868
576.716003	0.448668
578.682983	0.429110
580.676025	0.413977
582.693970	0.420764
584.737000	0.481599
586.807007	0.489090
588.903015	0.473856
591.026001	0.517949
593.176025	0.500503
595.354004	0.449925
597.559021	0.509351
599.793030	0.471041
602.054993	0.388587
604.346985	0.390699
606.666992	0.413424
609.017029	0.575716
611.398010	0.618954
613.807983	0.499598
616.250000	0.513524
618.721985	0.507340
621.226013	0.498894
623.762024	0.492006
626.330017	0.480493
628.931030	0.488990
631.565002	0.310256
634.232971	0.203821
636.934021	0.192107
639.669983	0.189542
642.440002	0.165209
645.245972	0.155204
648.085999	0.151885
650.963013	0.128306
653.875977	0.099045
656.825989	0.084314
659.812988	0.077476
662.836975	0.057717
665.898987	0.036350
669.000000	0.028909
