# Self-ballasted High Pressure Mercury Vapor Lamp, with yttrium vanadate phosphate fluorescent phosphors, in glow discharge mode
#
#    Spectral data Copyright (c) 1998-2009 by I.N. Galidakis          
#                                                                     
#    Extracted from page:                                             
#    <http://ioannis.virtualcomposer2000.com/spectroscope/amici.html> 
#                                                                     
#    This data is distributed in the hope that it will be useful,     
#    but WITHOUT ANY WARRANTY; without even the implied warranty of   
#    MERCHANTABILITY or FITNESS FOR A PARTICULAR PURPOSE.  See the    
#    CCL 3.0 Creative Commons License 3.0 for more details.           
#                                                                     
#    You should have received a copy of the CCL 3.0                   
#    along with this program.  If not, see:                           
#    <http://creativecommons.org/licenses/by/3.0/>.                   
#
404.756989	0.004525
404.901001	0.004475
405.054993	0.005128
405.221008	0.005078
405.398010	0.004927
405.584991	0.004877
405.782013	0.004676
405.989990	0.004726
406.208008	0.005279
406.436005	0.005933
406.674011	0.004273
406.920990	0.004575
407.177002	0.005178
407.442993	0.005279
407.717010	0.004877
408.000000	0.004374
408.291992	0.004324
408.592010	0.004575
408.901001	0.004927
409.217987	0.004575
409.541992	0.004324
409.875000	0.004424
410.214996	0.004525
410.562988	0.004475
410.917999	0.004273
411.279999	0.004776
411.649994	0.005983
412.026001	0.005430
412.408997	0.005028
412.799011	0.004927
413.195007	0.004977
413.596985	0.004776
414.006012	0.004776
414.420990	0.004877
414.842010	0.005028
415.269012	0.004977
415.701996	0.005430
416.140015	0.005530
416.584015	0.005229
417.032990	0.004625
417.487000	0.004072
417.946991	0.003821
418.411987	0.005229
418.881989	0.004525
419.355988	0.004173
419.835999	0.004072
420.320007	0.004424
420.808990	0.005078
421.302002	0.005128
421.799988	0.005380
422.302002	0.005128
422.808990	0.004424
423.319000	0.004324
423.834015	0.005178
424.352997	0.005078
424.876007	0.004273
425.402008	0.004173
425.933014	0.005128
426.467010	0.005631
427.005005	0.005329
427.546997	0.005380
428.092010	0.005380
428.640991	0.005530
429.194000	0.005530
429.750000	0.005681
430.308990	0.005832
430.872009	0.007692
431.437988	0.007340
432.006989	0.008396
432.579010	0.010156
433.154999	0.011765
433.734009	0.018703
434.316010	0.029864
434.901001	0.037456
435.489990	0.129613
436.080994	0.297084
436.675995	0.422775
437.273987	0.567622
437.873993	0.522574
438.477997	0.271443
439.084991	0.090799
439.695007	0.027501
440.307007	0.025289
440.923004	0.023429
441.541992	0.020060
442.164001	0.017949
442.789001	0.019960
443.416992	0.021619
444.048004	0.021921
444.683014	0.020965
445.320007	0.020312
445.959991	0.019759
446.604004	0.021720
447.251007	0.024585
447.901001	0.023328
448.553986	0.024485
449.209991	0.028859
449.869995	0.029814
450.532990	0.026345
451.200012	0.025742
451.869995	0.025943
452.542999	0.027954
453.220001	0.031021
453.901001	0.032177
454.584991	0.031976
455.273010	0.030015
455.964996	0.032831
456.660004	0.036853
457.359009	0.039115
458.062988	0.038059
458.769989	0.035998
459.480988	0.036099
460.196991	0.036652
460.915985	0.036802
461.640015	0.033283
462.368988	0.035546
463.101990	0.039015
463.838989	0.039266
464.580994	0.039920
465.328003	0.039568
466.079987	0.042182
466.835999	0.044042
467.597992	0.048567
468.364990	0.049623
469.136993	0.045400
469.914001	0.043439
470.696991	0.040221
471.484985	0.037758
472.278992	0.033132
473.079010	0.032730
473.885010	0.039115
474.696991	0.039115
475.515015	0.039719
476.338989	0.042232
477.170013	0.045752
478.007996	0.046506
478.851990	0.043992
479.703003	0.041076
480.559998	0.038160
481.424988	0.040221
482.298004	0.039920
483.177002	0.038964
484.063995	0.040674
484.959015	0.044193
485.862000	0.042433
486.773010	0.037003
487.691986	0.038009
488.619995	0.043137
489.554993	0.044897
490.500000	0.044143
491.453003	0.046657
492.415985	0.049673
493.388000	0.047260
494.368988	0.041931
495.359009	0.035294
496.359985	0.034389
497.369995	0.035747
498.390991	0.038110
499.420990	0.038763
500.463013	0.036953
501.515015	0.034439
502.578003	0.033886
503.652008	0.033434
504.737000	0.036048
505.834015	0.035495
506.942993	0.038512
508.062988	0.037758
509.196014	0.036953
510.341003	0.038562
511.498993	0.036099
512.669006	0.037054
513.853027	0.040573
515.049011	0.044344
516.260010	0.043188
517.484009	0.040473
518.721985	0.040674
519.973999	0.044092
521.239990	0.045349
522.521973	0.048617
523.817993	0.050276
525.129028	0.052237
526.455994	0.052690
527.797974	0.055405
529.156982	0.054047
530.531006	0.056913
531.921997	0.059025
533.330017	0.062393
534.755005	0.083560
536.197021	0.141729
537.656006	0.170890
539.132996	0.162494
540.629028	0.156611
542.142029	0.207843
543.674988	0.378130
545.226013	0.529311
546.796021	0.488638
548.385986	0.237406
549.994995	0.091302
551.625000	0.067370
553.275024	0.082152
554.945984	0.082705
556.637024	0.079286
558.349976	0.074309
560.083984	0.074862
561.841003	0.069935
563.619019	0.061337
565.419983	0.058069
567.244019	0.050830
569.091003	0.050930
570.960999	0.059226
572.854980	0.094369
574.773010	0.200251
576.716003	0.276923
578.682983	0.274661
580.676025	0.195777
582.693970	0.224585
584.737000	0.289744
586.807007	0.323731
588.903015	0.379386
591.026001	0.521317
593.176025	0.600352
595.354004	0.530920
597.559021	0.361840
599.793030	0.328658
602.054993	0.366818
604.346985	0.426043
606.666992	0.487632
609.017029	0.523328
611.398010	0.524283
613.807983	0.542433
616.250000	0.599899
618.721985	0.577375
621.226013	0.468728
623.762024	0.406888
626.330017	0.361589
628.931030	0.304273
631.565002	0.221368
634.232971	0.188336
636.934021	0.169884
639.669983	0.169884
642.440002	0.199397
645.245972	0.187531
648.085999	0.149020
650.963013	0.116440
653.875977	0.081096
656.825989	0.061438
659.812988	0.046606
662.836975	0.035294
665.898987	0.027049
669.000000	0.024384
