# PHILIPS ML 160W Self-Ballasted High Pressure Mercury Vapor Lamp
#
#    Spectral data Copyright (c) 1998-2009 by I.N. Galidakis          
#                                                                     
#    Extracted from page:                                             
#    <http://ioannis.virtualcomposer2000.com/spectroscope/amici.html> 
#                                                                     
#    This data is distributed in the hope that it will be useful,     
#    but WITHOUT ANY WARRANTY; without even the implied warranty of   
#    MERCHANTABILITY or FITNESS FOR A PARTICULAR PURPOSE.  See the    
#    CCL 3.0 Creative Commons License 3.0 for more details.           
#                                                                     
#    You should have received a copy of the CCL 3.0                   
#    along with this program.  If not, see:                           
#    <http://creativecommons.org/licenses/by/3.0/>.                   
#
404.756989	0.050176
404.901001	0.050176
405.054993	0.027451
405.221008	0.030166
405.398010	0.053444
405.584991	0.083761
405.782013	0.271946
405.989990	0.366818
406.208008	0.554852
406.436005	0.284163
406.674011	0.089995
406.920990	0.059779
407.177002	0.029311
407.442993	0.053595
407.717010	0.050679
408.000000	0.095726
408.291992	0.219759
408.592010	0.202966
408.901001	0.068678
409.217987	0.053796
409.541992	0.043489
409.875000	0.045802
410.214996	0.067119
410.562988	0.074258
410.917999	0.082604
411.279999	0.087280
411.649994	0.089794
412.026001	0.094419
412.408997	0.101659
412.799011	0.113223
413.195007	0.125289
413.596985	0.133886
414.006012	0.146305
414.420990	0.154651
414.842010	0.167773
415.269012	0.176873
415.701996	0.191654
416.140015	0.201006
416.584015	0.212418
417.032990	0.222172
417.487000	0.227904
417.946991	0.236048
418.411987	0.253645
418.881989	0.263248
419.355988	0.271694
419.835999	0.283308
420.320007	0.297788
420.808990	0.313776
421.302002	0.324585
421.799988	0.335697
422.302002	0.344243
422.808990	0.355355
423.319000	0.364555
423.834015	0.378180
424.352997	0.390900
424.876007	0.404072
425.402008	0.412921
425.933014	0.421015
426.467010	0.440674
427.005005	0.442383
427.546997	0.444294
428.092010	0.450578
428.640991	0.463449
429.194000	0.478884
429.750000	0.494771
430.308990	0.510407
430.872009	0.533786
431.437988	0.531121
432.006989	0.535646
432.579010	0.540120
433.154999	0.524283
433.734009	0.517194
434.316010	0.562343
434.901001	0.597335
435.489990	0.611613
436.080994	0.630468
436.675995	0.918301
437.273987	0.786375
437.873993	0.564857
438.477997	0.606988
439.084991	0.574510
439.695007	0.550427
440.307007	0.551282
440.923004	0.551935
441.541992	0.547410
442.164001	0.544846
442.789001	0.544695
443.416992	0.546455
444.048004	0.546405
444.683014	0.544696
445.320007	0.545198
445.959991	0.546405
446.604004	0.546003
447.251007	0.546103
447.901001	0.546556
448.553986	0.546908
449.209991	0.547511
449.869995	0.547209
450.532990	0.546204
451.200012	0.544042
451.869995	0.545048
452.542999	0.550025
453.220001	0.550276
453.901001	0.547210
454.584991	0.547310
455.273010	0.550226
455.964996	0.552338
456.660004	0.557064
457.359009	0.551533
458.062988	0.553393
458.769989	0.553745
459.480988	0.554349
460.196991	0.562846
460.915985	0.562594
461.640015	0.564605
462.368988	0.570940
463.101990	0.574359
463.838989	0.577979
464.580994	0.577024
465.328003	0.574258
466.079987	0.579085
466.835999	0.575716
467.597992	0.565410
468.364990	0.558371
469.136993	0.563147
469.914001	0.552840
470.696991	0.550578
471.484985	0.541377
472.278992	0.532478
473.079010	0.518753
473.885010	0.505832
474.696991	0.495576
475.515015	0.487884
476.338989	0.480694
477.170013	0.474761
478.007996	0.466215
478.851990	0.468829
479.703003	0.461237
480.559998	0.456209
481.424988	0.441177
482.298004	0.436501
483.177002	0.435043
484.063995	0.432529
484.959015	0.426093
485.862000	0.422725
486.773010	0.416893
487.691986	0.410156
488.619995	0.395575
489.554993	0.382705
490.500000	0.359326
491.453003	0.464455
492.415985	0.382152
493.388000	0.326245
494.368988	0.318502
495.359009	0.329211
496.359985	0.315888
497.369995	0.299849
498.390991	0.284062
499.420990	0.285772
500.463013	0.294017
501.515015	0.304625
502.578003	0.305731
503.652008	0.315033
504.737000	0.320312
505.834015	0.327501
506.942993	0.334842
508.062988	0.341428
509.196014	0.348065
510.341003	0.354500
511.498993	0.361036
512.669006	0.366968
513.853027	0.372549
515.049011	0.376169
516.260010	0.381297
517.484009	0.383811
518.721985	0.387431
519.973999	0.389090
521.239990	0.390548
522.521973	0.392509
523.817993	0.394168
525.129028	0.396531
526.455994	0.398492
527.797974	0.400553
529.156982	0.400955
530.531006	0.400955
531.921997	0.400553
533.330017	0.401860
534.755005	0.398542
536.197021	0.410558
537.656006	0.396330
539.132996	0.403318
540.629028	0.392760
542.142029	0.377376
543.674988	0.448768
545.226013	0.626244
546.796021	0.587883
548.385986	0.419457
549.994995	0.395575
551.625000	0.394620
553.275024	0.389241
554.945984	0.397788
556.637024	0.392710
558.349976	0.390447
560.083984	0.393062
561.841003	0.396129
563.619019	0.395626
565.419983	0.393665
567.244019	0.393263
569.091003	0.384515
570.960999	0.366063
572.854980	0.369181
574.773010	0.426496
576.716003	0.501508
578.682983	0.523428
580.676025	0.482956
582.693970	0.451584
584.737000	0.461488
586.807007	0.501156
588.903015	0.496682
591.026001	0.501156
593.176025	0.502313
595.354004	0.511362
597.559021	0.518502
599.793030	0.527953
602.054993	0.540573
604.346985	0.552539
606.666992	0.549623
609.017029	0.550377
611.398010	0.546154
613.807983	0.539919
616.250000	0.532529
618.721985	0.514731
621.226013	0.505631
623.762024	0.502413
626.330017	0.499899
628.931030	0.493866
631.565002	0.478683
634.232971	0.471695
636.934021	0.465108
639.669983	0.451886
642.440002	0.446506
645.245972	0.435897
648.085999	0.422373
650.963013	0.411664
653.875977	0.390397
656.825989	0.355706
659.812988	0.311413
662.836975	0.261287
665.898987	0.204173
669.000000	0.185973
