# Sylvania G8T5 8W Germicidal lamp
#
#    Spectral data Copyright (c) 1998-2009 by I.N. Galidakis          
#                                                                     
#    Extracted from page:                                             
#    <http://ioannis.virtualcomposer2000.com/spectroscope/amici.html> 
#                                                                     
#    This data is distributed in the hope that it will be useful,     
#    but WITHOUT ANY WARRANTY; without even the implied warranty of   
#    MERCHANTABILITY or FITNESS FOR A PARTICULAR PURPOSE.  See the    
#    CCL 3.0 Creative Commons License 3.0 for more details.           
#                                                                     
#    You should have received a copy of the CCL 3.0                   
#    along with this program.  If not, see:                           
#    <http://creativecommons.org/licenses/by/3.0/>.                   
#
404.756989	0.019759
404.901001	0.055757
405.054993	0.143087
405.221008	0.264354
405.398010	0.391403
405.584991	0.475264
405.782013	0.485973
405.989990	0.429563
406.208008	0.344394
406.436005	0.295224
406.674011	0.230568
406.920990	0.132579
407.177002	0.062242
407.442993	0.052740
407.717010	0.046254
408.000000	0.040573
408.291992	0.032780
408.592010	0.019155
408.901001	0.010809
409.217987	0.009502
409.541992	0.007089
409.875000	0.005933
410.214996	0.005782
410.562988	0.005732
410.917999	0.005028
411.279999	0.005229
411.649994	0.005028
412.026001	0.004525
412.408997	0.004374
412.799011	0.003821
413.195007	0.003720
413.596985	0.004273
414.006012	0.004625
414.420990	0.005380
414.842010	0.007441
415.269012	0.007491
415.701996	0.007089
416.140015	0.006938
416.584015	0.007039
417.032990	0.006938
417.487000	0.006938
417.946991	0.006938
418.411987	0.008195
418.881989	0.008849
419.355988	0.009703
419.835999	0.009452
420.320007	0.008748
420.808990	0.009050
421.302002	0.010256
421.799988	0.011413
422.302002	0.011564
422.808990	0.012569
423.319000	0.013625
423.834015	0.016390
424.352997	0.018452
424.876007	0.022775
425.402008	0.028507
425.933014	0.031875
426.467010	0.043439
427.005005	0.044897
427.546997	0.046606
428.092010	0.050528
428.640991	0.059779
429.194000	0.073705
429.750000	0.090196
430.308990	0.101760
430.872009	0.126144
431.437988	0.172147
432.006989	0.245500
432.579010	0.367270
433.154999	0.469935
433.734009	0.520714
434.316010	0.566465
434.901001	0.727803
435.489990	0.921418
436.080994	0.981649
436.675995	0.984565
437.273987	0.946808
437.873993	0.819859
438.477997	0.614831
439.084991	0.396581
439.695007	0.296280
440.307007	0.220563
440.923004	0.187984
441.541992	0.146858
442.164001	0.120764
442.789001	0.109502
443.416992	0.098341
444.048004	0.083308
444.683014	0.071393
445.320007	0.065561
445.959991	0.061036
446.604004	0.056662
447.251007	0.053243
447.901001	0.048115
448.553986	0.043540
449.209991	0.037104
449.869995	0.035043
450.532990	0.029563
451.200012	0.029613
451.869995	0.027753
452.542999	0.025993
453.220001	0.024686
453.901001	0.023630
454.584991	0.023529
455.273010	0.024686
455.964996	0.021921
456.660004	0.019809
457.359009	0.016541
458.062988	0.014379
458.769989	0.014128
459.480988	0.014379
460.196991	0.013675
460.915985	0.013374
461.640015	0.011865
462.368988	0.011262
463.101990	0.010558
463.838989	0.010709
464.580994	0.011413
465.328003	0.011614
466.079987	0.011111
466.835999	0.011161
467.597992	0.013524
468.364990	0.014480
469.136993	0.013575
469.914001	0.011362
470.696991	0.010106
471.484985	0.009703
472.278992	0.008446
473.079010	0.007893
473.885010	0.008195
474.696991	0.007944
475.515015	0.007793
476.338989	0.007843
477.170013	0.008497
478.007996	0.009452
478.851990	0.009351
479.703003	0.009201
480.559998	0.008849
481.424988	0.007793
482.298004	0.007541
483.177002	0.007340
484.063995	0.007642
484.959015	0.007893
485.862000	0.007642
486.773010	0.007491
487.691986	0.006737
488.619995	0.007290
489.554993	0.010156
490.500000	0.013927
491.453003	0.045199
492.415985	0.088738
493.388000	0.042735
494.368988	0.007340
495.359009	0.005380
496.359985	0.004827
497.369995	0.004475
498.390991	0.004374
499.420990	0.004877
500.463013	0.004977
501.515015	0.005028
502.578003	0.005078
503.652008	0.005078
504.737000	0.004877
505.834015	0.004273
506.942993	0.004173
508.062988	0.003972
509.196014	0.004173
510.341003	0.004374
511.498993	0.004575
512.669006	0.004877
513.853027	0.004827
515.049011	0.004625
516.260010	0.004525
517.484009	0.004223
518.721985	0.003972
519.973999	0.004173
521.239990	0.004475
522.521973	0.005882
523.817993	0.005028
525.129028	0.005380
526.455994	0.005882
527.797974	0.006486
529.156982	0.007340
530.531006	0.007793
531.921997	0.008597
533.330017	0.010457
534.755005	0.015586
536.197021	0.016843
537.656006	0.018803
539.132996	0.027049
540.629028	0.056812
542.142029	0.110910
543.674988	0.315284
545.226013	0.564354
546.796021	0.623580
548.385986	0.268326
549.994995	0.042283
551.625000	0.020664
553.275024	0.020613
554.945984	0.013826
556.637024	0.012167
558.349976	0.007491
560.083984	0.006385
561.841003	0.005530
563.619019	0.004173
565.419983	0.003922
567.244019	0.003972
569.091003	0.004273
570.960999	0.004877
572.854980	0.016641
574.773010	0.042685
576.716003	0.191403
578.682983	0.321518
580.676025	0.200553
582.693970	0.033434
584.737000	0.010106
586.807007	0.008497
588.903015	0.005329
591.026001	0.004726
593.176025	0.004374
595.354004	0.003469
597.559021	0.003167
599.793030	0.002564
602.054993	0.002464
604.346985	0.002514
606.666992	0.002815
609.017029	0.002614
611.398010	0.002765
613.807983	0.002614
616.250000	0.002464
618.721985	0.002112
621.226013	0.001609
623.762024	0.001760
626.330017	0.003318
628.931030	0.003117
631.565002	0.002966
634.232971	0.002866
636.934021	0.002413
639.669983	0.002313
642.440002	0.002464
645.245972	0.002765
648.085999	0.001609
650.963013	0.001609
653.875977	0.001609
656.825989	0.001609
659.812988	0.003519
662.836975	0.003519
665.898987	0.003519
669.000000	0.003519
