# PHILIPS Spectral Xenon Lamp - Continuous Xenon low pressure thermionic discharge
#
#    Spectral data Copyright (c) 1998-2009 by I.N. Galidakis          
#                                                                     
#    Extracted from page:                                             
#    <http://ioannis.virtualcomposer2000.com/spectroscope/amici.html> 
#                                                                     
#    This data is distributed in the hope that it will be useful,     
#    but WITHOUT ANY WARRANTY; without even the implied warranty of   
#    MERCHANTABILITY or FITNESS FOR A PARTICULAR PURPOSE.  See the    
#    CCL 3.0 Creative Commons License 3.0 for more details.           
#                                                                     
#    You should have received a copy of the CCL 3.0                   
#    along with this program.  If not, see:                           
#    <http://creativecommons.org/licenses/by/3.0/>.                   
#
404.756989	0.002464
404.901001	0.002464
405.054993	0.002514
405.221008	0.002363
405.398010	0.002363
405.584991	0.002514
405.782013	0.002514
405.989990	0.002564
406.208008	0.002665
406.436005	0.002966
406.674011	0.003922
406.920990	0.003419
407.177002	0.003318
407.442993	0.002815
407.717010	0.002815
408.000000	0.002715
408.291992	0.002916
408.592010	0.002866
408.901001	0.002564
409.217987	0.002765
409.541992	0.002564
409.875000	0.002715
410.214996	0.002715
410.562988	0.002866
410.917999	0.002715
411.279999	0.002765
411.649994	0.003218
412.026001	0.003017
412.408997	0.003017
412.799011	0.002966
413.195007	0.002514
413.596985	0.002564
414.006012	0.002514
414.420990	0.002665
414.842010	0.003117
415.269012	0.003067
415.701996	0.002866
416.140015	0.002815
416.584015	0.003469
417.032990	0.003419
417.487000	0.003670
417.946991	0.003620
418.411987	0.002564
418.881989	0.002313
419.355988	0.002262
419.835999	0.002262
420.320007	0.003017
420.808990	0.003570
421.302002	0.004273
421.799988	0.004977
422.302002	0.003570
422.808990	0.003167
423.319000	0.002665
423.834015	0.003017
424.352997	0.003017
424.876007	0.003821
425.402008	0.004173
425.933014	0.004575
426.467010	0.005028
427.005005	0.004625
427.546997	0.004525
428.092010	0.004424
428.640991	0.005430
429.194000	0.006787
429.750000	0.008044
430.308990	0.009603
430.872009	0.009553
431.437988	0.010005
432.006989	0.011212
432.579010	0.012820
433.154999	0.013977
433.734009	0.015686
434.316010	0.017245
434.901001	0.018100
435.489990	0.021468
436.080994	0.023429
436.675995	0.029060
437.273987	0.034037
437.873993	0.043891
438.477997	0.049472
439.084991	0.052841
439.695007	0.051031
440.307007	0.047863
440.923004	0.051232
441.541992	0.055656
442.164001	0.058170
442.789001	0.060181
443.416992	0.065008
444.048004	0.070588
444.683014	0.073504
445.320007	0.079487
445.959991	0.078381
446.604004	0.081096
447.251007	0.085219
447.901001	0.108396
448.553986	0.129864
449.209991	0.170538
449.869995	0.244545
450.532990	0.346757
451.200012	0.327602
451.869995	0.256813
452.542999	0.261388
453.220001	0.276420
453.901001	0.230166
454.584991	0.196430
455.273010	0.189744
455.964996	0.202665
456.660004	0.220664
457.359009	0.246305
458.062988	0.280141
458.769989	0.286224
459.480988	0.278733
460.196991	0.306084
460.915985	0.339417
461.640015	0.514127
462.368988	0.674057
463.101990	0.715184
463.838989	0.510307
464.580994	0.400251
465.328003	0.409955
466.079987	0.524987
466.835999	0.683409
467.597992	0.810407
468.364990	0.601307
469.136993	0.479789
469.914001	0.573906
470.696991	0.439769
471.484985	0.348869
472.278992	0.443087
473.079010	0.625943
473.885010	0.596883
474.696991	0.370840
475.515015	0.296078
476.338989	0.338261
477.170013	0.340523
478.007996	0.348014
478.851990	0.411312
479.703003	0.512871
480.559998	0.559527
481.424988	0.433736
482.298004	0.473404
483.177002	0.526998
484.063995	0.447461
484.959015	0.335696
485.862000	0.294922
486.773010	0.304173
487.691986	0.309050
488.619995	0.319809
489.554993	0.375013
490.500000	0.504475
491.453003	0.575063
492.415985	0.303218
493.388000	0.227753
494.368988	0.244143
495.359009	0.224133
496.359985	0.224485
497.369995	0.237607
498.390991	0.238964
499.420990	0.266315
500.463013	0.292509
501.515015	0.307340
502.578003	0.279839
503.652008	0.282453
504.737000	0.299799
505.834015	0.304927
506.942993	0.303318
508.062988	0.318954
509.196014	0.329563
510.341003	0.328004
511.498993	0.326697
512.669006	0.340473
513.853027	0.355455
515.049011	0.360835
516.260010	0.350981
517.484009	0.345752
518.721985	0.346808
519.973999	0.354550
521.239990	0.365460
522.521973	0.376521
523.817993	0.362896
525.129028	0.361589
526.455994	0.367622
527.797974	0.358572
529.156982	0.356511
530.531006	0.366315
531.921997	0.369583
533.330017	0.379387
534.755005	0.377979
536.197021	0.379186
537.656006	0.370890
539.132996	0.361488
540.629028	0.353696
542.142029	0.344394
543.674988	0.343489
545.226013	0.358321
546.796021	0.342031
548.385986	0.324133
549.994995	0.334289
551.625000	0.358271
553.275024	0.368326
554.945984	0.351232
556.637024	0.321619
558.349976	0.315535
560.083984	0.300553
561.841003	0.285973
563.619019	0.287582
565.419983	0.313122
567.244019	0.335495
569.091003	0.289744
570.960999	0.240674
572.854980	0.265661
574.773010	0.295877
576.716003	0.380845
578.682983	0.444143
580.676025	0.455908
582.693970	0.442987
584.737000	0.472499
586.807007	0.477929
588.903015	0.496833
591.026001	0.468879
593.176025	0.440070
595.354004	0.435294
597.559021	0.406486
599.793030	0.388688
602.054993	0.381297
604.346985	0.378884
606.666992	0.410960
609.017029	0.422272
611.398010	0.444244
613.807983	0.455958
616.250000	0.429764
618.721985	0.352690
621.226013	0.356762
623.762024	0.381800
626.330017	0.384364
628.931030	0.347260
631.565002	0.228808
634.232971	0.187632
636.934021	0.206184
639.669983	0.223479
642.440002	0.263097
645.245972	0.250779
648.085999	0.173002
650.963013	0.145048
653.875977	0.119708
656.825989	0.096481
659.812988	0.067823
662.836975	0.042685
665.898987	0.020563
669.000000	0.011061
